Subj,SID,Trial,Resp,Response,ChooseLeft,RT,IssueLeft,IssueRight,PosLeft,PosRight,LeftSupport,LeftMoral,LeftFamiliar,LeftSupport_z,LeftMoral_z,LeftSupport_zm,LeftMoral_zm,RightSupport,RightMoral,RightFamiliar,RightSupport_z,RightMoral_z,RightSupport_zm,RightMoral_zm,LeftAdj,RightAdj,LeftAdjz,RightAdjz,ChoiceSupport,ChoiceSupportNaive,ChoiceMoral,ChoiceSupportDist,ChoiceMoralDist,LeftAdjDiff,RightAdjDiff,LeftRDV,LeftDiff_raw,LeftMoral_diff,LeftRMC,ChooseRight,Choice,RTs,RTqtile,RT_mean
35,R_2Yxsaos59MLqKPE,1,j,2,0,11985.65999999852,Abolishing private prisons,Raise the minimum wage,-1,-1,3,4,2,1.9333873324249353,0.5505977612893483,3.64,3.28,2,3,2,1.114155411905895,-0.21412135161252416,3.64,3.28,-3,-2,-1.9333873324249353,-1.114155411905895,1,-1,-1,1,1,-1,1,-0.8192319205190404,1,1,0.7647191129018724,1,Right,11.98565999999852,5,3.5167561499997846
35,R_2Yxsaos59MLqKPE,2,j,2,0,3941.145000000717,Build southern border wall,Mask mandates,1,1,-1,0,2,-1.3435403496512264,-2.5082786903181415,3.64,3.28,2,4,4,1.114155411905895,0.5505977612893483,3.64,3.28,-1,2,-1.3435403496512264,1.114155411905895,3,3,4,3,4,-3,3,-2.4576957615571215,-3,-4,-3.0588764516074898,1,Right,3.9411450000007173,4,3.5167561499997846
35,R_2Yxsaos59MLqKPE,3,j,2,0,4618.1299999988405,Mask mandates,Raise the minimum wage,1,1,2,4,4,1.114155411905895,0.5505977612893483,3.64,3.28,2,3,2,1.114155411905895,-0.21412135161252416,3.64,3.28,2,2,1.114155411905895,1.114155411905895,0,0,-1,0,1,0,0,0,0,1,0.7647191129018724,1,Right,4.618129999998841,5,3.5167561499997846
35,R_2Yxsaos59MLqKPE,4,f,1,1,2953.079999999376,Abortion rights,Ban on research with animals,1,-1,2,4,3,1.114155411905895,0.5505977612893483,3.64,3.28,1,6,1,0.2949234913868545,2.0800359870930936,3.64,3.28,2,-1,1.114155411905895,-0.2949234913868545,3,1,-2,3,2,3,-3,1.4090789032927495,1,-2,-1.5294382258037453,0,Left,2.953079999999376,3,3.5167561499997846
35,R_2Yxsaos59MLqKPE,5,j,2,0,4385.320000001229,Abolishing private prisons,Abolishing private prisons,-1,1,3,4,2,1.9333873324249353,0.5505977612893483,3.64,3.28,3,4,2,1.9333873324249353,0.5505977612893483,3.64,3.28,-3,3,-1.9333873324249353,1.9333873324249353,6,0,0,6,0,-6,6,-3.8667746648498706,0,0,0,1,Right,4.385320000001229,5,3.5167561499997846
35,R_2Yxsaos59MLqKPE,6,j,2,0,7041.014999998966,Abortion rights,Abolishing private prisons,-1,1,2,4,3,1.114155411905895,0.5505977612893483,3.64,3.28,3,4,2,1.9333873324249353,0.5505977612893483,3.64,3.28,-2,3,-1.114155411905895,1.9333873324249353,5,1,0,5,0,-5,5,-3.0475427443308303,-1,0,0,1,Right,7.041014999998966,5,3.5167561499997846
35,R_2Yxsaos59MLqKPE,7,j,2,0,14197.560000000522,Abolishing private prisons,Bathrooms restricted based on biological sex,-1,1,3,4,2,1.9333873324249353,0.5505977612893483,3.64,3.28,0,1,1,-0.524308429132186,-1.7435595774162693,3.64,3.28,-3,0,-1.9333873324249353,-0.524308429132186,3,-3,-3,3,3,-3,3,-1.4090789032927493,3,3,2.2941573387056176,1,Right,14.197560000000522,5,3.5167561499997846
35,R_2Yxsaos59MLqKPE,8,j,2,0,2505.909999999916,Ban on ethnic Halloween costumes,Abolishing private prisons,1,1,1,1,1,0.2949234913868545,-1.7435595774162693,3.64,3.28,3,4,2,1.9333873324249353,0.5505977612893483,3.64,3.28,1,3,0.2949234913868545,1.9333873324249353,2,2,3,2,3,-2,2,-1.6384638410380807,-2,-3,-2.2941573387056176,1,Right,2.505909999999916,3,3.5167561499997846
35,R_2Yxsaos59MLqKPE,9,f,1,1,7539.130000001052,Abolishing fraternities,Cuts to National Parks budget,-1,1,2,4,1,1.114155411905895,0.5505977612893483,3.64,3.28,-1,2,1,-1.3435403496512264,-0.9788404645143967,3.64,3.28,-2,-1,-1.114155411905895,-1.3435403496512264,-1,3,2,1,2,-1,1,0.22938493774533142,3,2,1.5294382258037449,0,Left,7.539130000001053,5,3.5167561499997846
35,R_2Yxsaos59MLqKPE,10,j,2,0,2920.739999997779,Abolishing private prisons,Abortion rights,-1,1,3,4,2,1.9333873324249353,0.5505977612893483,3.64,3.28,2,4,3,1.114155411905895,0.5505977612893483,3.64,3.28,-3,2,-1.9333873324249353,1.114155411905895,5,-1,0,5,0,-5,5,-3.0475427443308303,1,0,0,1,Right,2.920739999997779,3,3.5167561499997846
35,R_2Yxsaos59MLqKPE,11,j,2,0,2710.4749999998603,Abortion rights,Stop police brutality,-1,1,2,4,3,1.114155411905895,0.5505977612893483,3.64,3.28,2,5,2,1.114155411905895,1.315316874191221,3.64,3.28,-2,2,-1.114155411905895,1.114155411905895,4,0,1,4,1,-4,4,-2.22831082381179,0,-1,-0.7647191129018726,1,Right,2.7104749999998603,3,3.5167561499997846
35,R_2Yxsaos59MLqKPE,12,f,1,1,2616.1050000009127,Abolishing fraternities,Bathrooms restricted based on biological sex,1,1,2,4,1,1.114155411905895,0.5505977612893483,3.64,3.28,0,1,1,-0.524308429132186,-1.7435595774162693,3.64,3.28,2,0,1.114155411905895,-0.524308429132186,2,2,3,2,3,2,-2,1.638463841038081,2,3,2.2941573387056176,0,Left,2.6161050000009127,3,3.5167561499997846
35,R_2Yxsaos59MLqKPE,13,j,2,0,2386.3799999998882,Stop police brutality,Ban on ethnic Halloween costumes,-1,1,2,5,2,1.114155411905895,1.315316874191221,3.64,3.28,1,1,1,0.2949234913868545,-1.7435595774162693,3.64,3.28,-2,1,-1.114155411905895,0.2949234913868545,3,-1,-4,3,4,-3,3,-1.4090789032927495,1,4,3.0588764516074902,1,Right,2.386379999999888,3,3.5167561499997846
35,R_2Yxsaos59MLqKPE,14,f,1,1,7272.8399999977555,Mask mandates,Lift COVID lockdowns,-1,1,2,4,4,1.114155411905895,0.5505977612893483,3.64,3.28,-1,3,2,-1.3435403496512264,-0.21412135161252416,3.64,3.28,-2,-1,-1.114155411905895,-1.3435403496512264,-1,3,1,1,1,-1,1,0.22938493774533142,3,1,0.7647191129018724,0,Left,7.272839999997755,5,3.5167561499997846
35,R_2Yxsaos59MLqKPE,15,j,2,0,4127.9950000025565,Abolishing private prisons,Build southern border wall,-1,-1,3,4,2,1.9333873324249353,0.5505977612893483,3.64,3.28,-1,0,2,-1.3435403496512264,-2.5082786903181415,3.64,3.28,-3,1,-1.9333873324249353,1.3435403496512264,4,-4,-4,4,4,-4,4,-3.2769276820761615,4,4,3.0588764516074898,1,Right,4.1279950000025565,4,3.5167561499997846
35,R_2Yxsaos59MLqKPE,16,j,2,0,3182.085000000312,Abolishing private prisons,Affirmative action,-1,1,3,4,2,1.9333873324249353,0.5505977612893483,3.64,3.28,1,4,1,0.2949234913868545,0.5505977612893483,3.64,3.28,-3,1,-1.9333873324249353,0.2949234913868545,4,-2,0,4,0,-4,4,-2.22831082381179,2,0,0,1,Right,3.182085000000312,4,3.5167561499997846
35,R_2Yxsaos59MLqKPE,17,j,2,0,5531.914999999572,Build southern border wall,Abolishing private prisons,-1,1,-1,0,2,-1.3435403496512264,-2.5082786903181415,3.64,3.28,3,4,2,1.9333873324249353,0.5505977612893483,3.64,3.28,1,3,1.3435403496512264,1.9333873324249353,2,4,4,2,4,-2,2,-0.589846982773709,-4,-4,-3.0588764516074898,1,Right,5.531914999999572,5,3.5167561499997846
35,R_2Yxsaos59MLqKPE,18,j,2,0,2322.6900000008754,Abolishing private prisons,Raise the minimum wage,-1,1,3,4,2,1.9333873324249353,0.5505977612893483,3.64,3.28,2,3,2,1.114155411905895,-0.21412135161252416,3.64,3.28,-3,2,-1.9333873324249353,1.114155411905895,5,-1,-1,5,1,-5,5,-3.0475427443308303,1,1,0.7647191129018724,1,Right,2.3226900000008754,2,3.5167561499997846
35,R_2Yxsaos59MLqKPE,19,j,2,0,3718.095000000205,Increased Gun regulations,Abolishing private prisons,-1,1,0,3,3,-0.524308429132186,-0.21412135161252416,3.64,3.28,3,4,2,1.9333873324249353,0.5505977612893483,3.64,3.28,-0,3,0.524308429132186,1.9333873324249353,3,3,1,3,1,-3,3,-1.4090789032927493,-3,-1,-0.7647191129018724,1,Right,3.718095000000205,4,3.5167561499997846
35,R_2Yxsaos59MLqKPE,20,f,1,1,2045.945000001695,Abortion rights,Increased Gun regulations,1,1,2,4,3,1.114155411905895,0.5505977612893483,3.64,3.28,0,3,3,-0.524308429132186,-0.21412135161252416,3.64,3.28,2,0,1.114155411905895,-0.524308429132186,2,2,1,2,1,2,-2,1.638463841038081,2,1,0.7647191129018724,0,Left,2.045945000001695,2,3.5167561499997846
35,R_2Yxsaos59MLqKPE,21,f,1,1,3275.2049999980954,Stop police brutality,Expel students with white nationlist views,1,-1,2,5,2,1.114155411905895,1.315316874191221,3.64,3.28,-1,3,1,-1.3435403496512264,-0.21412135161252416,3.64,3.28,2,1,1.114155411905895,1.3435403496512264,1,3,2,1,2,1,-1,-0.22938493774533142,3,2,1.5294382258037451,0,Left,3.2752049999980954,4,3.5167561499997846
35,R_2Yxsaos59MLqKPE,22,f,1,1,9121.100000000326,Physician-assisted suicide,Abolishing private prisons,-1,-1,1,4,2,0.2949234913868545,0.5505977612893483,3.64,3.28,3,4,2,1.9333873324249353,0.5505977612893483,3.64,3.28,-1,-3,-0.2949234913868545,-1.9333873324249353,2,-2,0,2,0,2,-2,1.6384638410380807,-2,0,0,0,Left,9.121100000000325,5,3.5167561499997846
35,R_2Yxsaos59MLqKPE,23,f,1,1,11913.964999999735,Stop police brutality,Abortion rights,-1,-1,2,5,2,1.114155411905895,1.315316874191221,3.64,3.28,2,4,3,1.114155411905895,0.5505977612893483,3.64,3.28,-2,-2,-1.114155411905895,-1.114155411905895,0,0,1,0,1,0,0,0,0,1,0.7647191129018726,0,Left,11.913964999999735,5,3.5167561499997846
35,R_2Yxsaos59MLqKPE,24,j,2,0,3134.654999998049,Ban on ethnic Halloween costumes,Abolishing fraternities,-1,1,1,1,1,0.2949234913868545,-1.7435595774162693,3.64,3.28,2,4,1,1.114155411905895,0.5505977612893483,3.64,3.28,-1,2,-0.2949234913868545,1.114155411905895,3,1,3,3,3,-3,3,-1.4090789032927495,-1,-3,-2.2941573387056176,1,Right,3.134654999998049,4,3.5167561499997846
35,R_2Yxsaos59MLqKPE,25,j,2,0,2431.904999997583,Abolishing private prisons,Legalization of marijuana,-1,-1,3,4,2,1.9333873324249353,0.5505977612893483,3.64,3.28,1,3,3,0.2949234913868545,-0.21412135161252416,3.64,3.28,-3,-1,-1.9333873324249353,-0.2949234913868545,2,-2,-1,2,1,-2,2,-1.6384638410380807,2,1,0.7647191129018724,1,Right,2.4319049999975832,3,3.5167561499997846
35,R_2Yxsaos59MLqKPE,26,f,1,1,2065.370000000228,Ban on research with animals,Abolishing private prisons,1,-1,1,6,1,0.2949234913868545,2.0800359870930936,3.64,3.28,3,4,2,1.9333873324249353,0.5505977612893483,3.64,3.28,1,-3,0.2949234913868545,-1.9333873324249353,4,-2,2,4,2,4,-4,2.22831082381179,-2,2,1.5294382258037453,0,Left,2.065370000000228,2,3.5167561499997846
35,R_2Yxsaos59MLqKPE,27,j,2,0,8900.24500000081,Abolishing private prisons,Increased Gun regulations,-1,1,3,4,2,1.9333873324249353,0.5505977612893483,3.64,3.28,0,3,3,-0.524308429132186,-0.21412135161252416,3.64,3.28,-3,0,-1.9333873324249353,-0.524308429132186,3,-3,-1,3,1,-3,3,-1.4090789032927493,3,1,0.7647191129018724,1,Right,8.90024500000081,5,3.5167561499997846
35,R_2Yxsaos59MLqKPE,28,j,2,0,2424.5799999989104,Abolishing private prisons,Ban on ethnic Halloween costumes,-1,1,3,4,2,1.9333873324249353,0.5505977612893483,3.64,3.28,1,1,1,0.2949234913868545,-1.7435595774162693,3.64,3.28,-3,1,-1.9333873324249353,0.2949234913868545,4,-2,-3,4,3,-4,4,-2.22831082381179,2,3,2.2941573387056176,1,Right,2.4245799999989104,3,3.5167561499997846
35,R_2Yxsaos59MLqKPE,29,j,2,0,2290.304999998538,Ban on ethnic Halloween costumes,Abolishing private prisons,-1,1,1,1,1,0.2949234913868545,-1.7435595774162693,3.64,3.28,3,4,2,1.9333873324249353,0.5505977612893483,3.64,3.28,-1,3,-0.2949234913868545,1.9333873324249353,4,2,3,4,3,-4,4,-2.22831082381179,-2,-3,-2.2941573387056176,1,Right,2.2903049999985376,2,3.5167561499997846
35,R_2Yxsaos59MLqKPE,30,j,2,0,3250.7650000007125,Abolishing fraternities,Ban on ethnic Halloween costumes,-1,-1,2,4,1,1.114155411905895,0.5505977612893483,3.64,3.28,1,1,1,0.2949234913868545,-1.7435595774162693,3.64,3.28,-2,-1,-1.114155411905895,-0.2949234913868545,1,-1,-3,1,3,-1,1,-0.8192319205190405,1,3,2.2941573387056176,1,Right,3.2507650000007127,4,3.5167561499997846
35,R_2Yxsaos59MLqKPE,31,f,1,1,4965.384999999427,Mask mandates,Black Lives Matter,-1,-1,2,4,4,1.114155411905895,0.5505977612893483,3.64,3.28,1,4,2,0.2949234913868545,0.5505977612893483,3.64,3.28,-2,-1,-1.114155411905895,-0.2949234913868545,-1,1,0,1,0,-1,1,-0.8192319205190405,1,0,0,0,Left,4.9653849999994275,5,3.5167561499997846
35,R_2Yxsaos59MLqKPE,32,f,1,1,2017.8299999970477,Stop police brutality,Ban on research with animals,1,-1,2,5,2,1.114155411905895,1.315316874191221,3.64,3.28,1,6,1,0.2949234913868545,2.0800359870930936,3.64,3.28,2,-1,1.114155411905895,-0.2949234913868545,3,1,-1,3,1,3,-3,1.4090789032927495,1,-1,-0.7647191129018727,0,Left,2.0178299999970477,2,3.5167561499997846
35,R_2Yxsaos59MLqKPE,33,j,2,0,1596.5250000008382,Stop police brutality,Stop police brutality,-1,1,2,5,2,1.114155411905895,1.315316874191221,3.64,3.28,2,5,2,1.114155411905895,1.315316874191221,3.64,3.28,-2,2,-1.114155411905895,1.114155411905895,4,0,0,4,0,-4,4,-2.22831082381179,0,0,0,1,Right,1.5965250000008382,1,3.5167561499997846
35,R_2Yxsaos59MLqKPE,34,j,2,0,6293.144999999669,Build southern border wall,Mask mandates,1,-1,-1,0,2,-1.3435403496512264,-2.5082786903181415,3.64,3.28,2,4,4,1.114155411905895,0.5505977612893483,3.64,3.28,-1,-2,-1.3435403496512264,-1.114155411905895,-1,3,4,1,4,1,-1,-0.22938493774533142,-3,-4,-3.0588764516074898,1,Right,6.29314499999967,5,3.5167561499997846
35,R_2Yxsaos59MLqKPE,35,j,2,0,1799.8049999986542,Build southern border wall,Stop police brutality,1,1,-1,0,2,-1.3435403496512264,-2.5082786903181415,3.64,3.28,2,5,2,1.114155411905895,1.315316874191221,3.64,3.28,-1,2,-1.3435403496512264,1.114155411905895,3,3,5,3,5,-3,3,-2.4576957615571215,-3,-5,-3.8235955645093624,1,Right,1.7998049999986543,1,3.5167561499997846
35,R_2Yxsaos59MLqKPE,36,j,2,0,2874.5650000018068,Remove Christopher Columbus statues,Abolishing private prisons,1,1,-1,2,1,-1.3435403496512264,-0.9788404645143967,3.64,3.28,3,4,2,1.9333873324249353,0.5505977612893483,3.64,3.28,-1,3,-1.3435403496512264,1.9333873324249353,4,4,2,4,2,-4,4,-3.2769276820761615,-4,-2,-1.5294382258037449,1,Right,2.8745650000018066,3,3.5167561499997846
35,R_2Yxsaos59MLqKPE,37,j,2,0,2070.0700000015786,Physician-assisted suicide,Stop police brutality,-1,1,1,4,2,0.2949234913868545,0.5505977612893483,3.64,3.28,2,5,2,1.114155411905895,1.315316874191221,3.64,3.28,-1,2,-0.2949234913868545,1.114155411905895,3,1,1,3,1,-3,3,-1.4090789032927495,-1,-1,-0.7647191129018726,1,Right,2.0700700000015786,2,3.5167561499997846
35,R_2Yxsaos59MLqKPE,38,j,2,0,2020.7399999998743,Raise the minimum wage,Abolishing private prisons,-1,1,2,3,2,1.114155411905895,-0.21412135161252416,3.64,3.28,3,4,2,1.9333873324249353,0.5505977612893483,3.64,3.28,-2,3,-1.114155411905895,1.9333873324249353,5,1,1,5,1,-5,5,-3.0475427443308303,-1,-1,-0.7647191129018724,1,Right,2.0207399999998743,2,3.5167561499997846
35,R_2Yxsaos59MLqKPE,39,j,2,0,2904.230000000214,Detention of migrant children,Abolishing private prisons,-1,1,-1,4,1,-1.3435403496512264,0.5505977612893483,3.64,3.28,3,4,2,1.9333873324249353,0.5505977612893483,3.64,3.28,1,3,1.3435403496512264,1.9333873324249353,2,4,0,2,0,-2,2,-0.589846982773709,-4,0,0,1,Right,2.904230000000214,3,3.5167561499997846
35,R_2Yxsaos59MLqKPE,40,f,1,1,6045.704999996815,Build southern border wall,Abolishing private prisons,1,-1,-1,0,2,-1.3435403496512264,-2.5082786903181415,3.64,3.28,3,4,2,1.9333873324249353,0.5505977612893483,3.64,3.28,-1,-3,-1.3435403496512264,-1.9333873324249353,2,-4,-4,2,4,2,-2,0.589846982773709,-4,-4,-3.0588764516074898,0,Left,6.045704999996815,5,3.5167561499997846
35,R_2Yxsaos59MLqKPE,41,j,2,0,2960.975000001723,Build southern border wall,Stop police brutality,-1,1,-1,0,2,-1.3435403496512264,-2.5082786903181415,3.64,3.28,2,5,2,1.114155411905895,1.315316874191221,3.64,3.28,1,2,1.3435403496512264,1.114155411905895,1,3,5,1,5,-1,1,0.22938493774533142,-3,-5,-3.8235955645093624,1,Right,2.960975000001723,3,3.5167561499997846
35,R_2Yxsaos59MLqKPE,42,f,1,1,3384.7399999976624,Raise the minimum wage,Stop police brutality,-1,-1,2,3,2,1.114155411905895,-0.21412135161252416,3.64,3.28,2,5,2,1.114155411905895,1.315316874191221,3.64,3.28,-2,-2,-1.114155411905895,-1.114155411905895,0,0,-2,0,2,0,0,0,0,-2,-1.5294382258037451,0,Left,3.384739999997662,4,3.5167561499997846
35,R_2Yxsaos59MLqKPE,43,f,1,1,2565.934999998659,Abortion rights,Build southern border wall,1,-1,2,4,3,1.114155411905895,0.5505977612893483,3.64,3.28,-1,0,2,-1.3435403496512264,-2.5082786903181415,3.64,3.28,2,1,1.114155411905895,1.3435403496512264,1,3,4,1,4,1,-1,-0.22938493774533142,3,4,3.0588764516074898,0,Left,2.565934999998659,3,3.5167561499997846
35,R_2Yxsaos59MLqKPE,44,f,1,1,12234.984999999171,Abolishing private prisons,Ban on research with animals,1,1,3,4,2,1.9333873324249353,0.5505977612893483,3.64,3.28,1,6,1,0.2949234913868545,2.0800359870930936,3.64,3.28,3,1,1.9333873324249353,0.2949234913868545,2,2,-2,2,2,2,-2,1.6384638410380807,2,-2,-1.5294382258037453,0,Left,12.23498499999917,5,3.5167561499997846
35,R_2Yxsaos59MLqKPE,45,f,1,1,7688.109999999171,Ban on research with animals,Abolishing private prisons,-1,-1,1,6,1,0.2949234913868545,2.0800359870930936,3.64,3.28,3,4,2,1.9333873324249353,0.5505977612893483,3.64,3.28,-1,-3,-0.2949234913868545,-1.9333873324249353,2,-2,2,2,2,2,-2,1.6384638410380807,-2,2,1.5294382258037453,0,Left,7.688109999999171,5,3.5167561499997846
35,R_2Yxsaos59MLqKPE,46,j,2,0,4432.015000002226,Mask mandates,Cuts to National Parks budget,1,1,2,4,4,1.114155411905895,0.5505977612893483,3.64,3.28,-1,2,1,-1.3435403496512264,-0.9788404645143967,3.64,3.28,2,-1,1.114155411905895,-1.3435403496512264,-3,-3,-2,3,2,3,-3,2.4576957615571215,3,2,1.5294382258037449,1,Right,4.432015000002226,5,3.5167561499997846
35,R_2Yxsaos59MLqKPE,47,f,1,1,4223.659999999683,Cuts to National Parks budget,Abolishing private prisons,1,-1,-1,2,1,-1.3435403496512264,-0.9788404645143967,3.64,3.28,3,4,2,1.9333873324249353,0.5505977612893483,3.64,3.28,-1,-3,-1.3435403496512264,-1.9333873324249353,2,-4,-2,2,2,2,-2,0.589846982773709,-4,-2,-1.5294382258037449,0,Left,4.2236599999996836,4,3.5167561499997846
35,R_2Yxsaos59MLqKPE,48,f,1,1,2314.1599999980535,Abolishing fraternities,Ban on ethnic Halloween costumes,1,1,2,4,1,1.114155411905895,0.5505977612893483,3.64,3.28,1,1,1,0.2949234913868545,-1.7435595774162693,3.64,3.28,2,1,1.114155411905895,0.2949234913868545,1,1,3,1,3,1,-1,0.8192319205190405,1,3,2.2941573387056176,0,Left,2.3141599999980533,2,3.5167561499997846
35,R_2Yxsaos59MLqKPE,49,j,2,0,1369.7299999985844,Cuts to National Parks budget,Abortion rights,-1,1,-1,2,1,-1.3435403496512264,-0.9788404645143967,3.64,3.28,2,4,3,1.114155411905895,0.5505977612893483,3.64,3.28,1,2,1.3435403496512264,1.114155411905895,1,3,2,1,2,-1,1,0.22938493774533142,-3,-2,-1.5294382258037449,1,Right,1.3697299999985844,1,3.5167561499997846
35,R_2Yxsaos59MLqKPE,50,f,1,1,2402.409999998752,Abolishing private prisons,Bathrooms restricted based on biological sex,1,1,3,4,2,1.9333873324249353,0.5505977612893483,3.64,3.28,0,1,1,-0.524308429132186,-1.7435595774162693,3.64,3.28,3,0,1.9333873324249353,-0.524308429132186,3,3,3,3,3,3,-3,2.4576957615571215,3,3,2.2941573387056176,0,Left,2.402409999998752,3,3.5167561499997846
35,R_2Yxsaos59MLqKPE,51,j,2,0,2827.744999998715,Abortion rights,Cuts to National Parks budget,-1,-1,2,4,3,1.114155411905895,0.5505977612893483,3.64,3.28,-1,2,1,-1.3435403496512264,-0.9788404645143967,3.64,3.28,-2,1,-1.114155411905895,1.3435403496512264,3,-3,-2,3,2,-3,3,-2.4576957615571215,3,2,1.5294382258037449,1,Right,2.827744999998715,3,3.5167561499997846
35,R_2Yxsaos59MLqKPE,52,f,1,1,2328.1499999975786,Mask mandates,Lift COVID lockdowns,1,-1,2,4,4,1.114155411905895,0.5505977612893483,3.64,3.28,-1,3,2,-1.3435403496512264,-0.21412135161252416,3.64,3.28,2,1,1.114155411905895,1.3435403496512264,1,3,1,1,1,1,-1,-0.22938493774533142,3,1,0.7647191129018724,0,Left,2.3281499999975788,2,3.5167561499997846
35,R_2Yxsaos59MLqKPE,53,j,2,0,2187.874999999767,Abolishing private prisons,Ban on ethnic Halloween costumes,-1,-1,3,4,2,1.9333873324249353,0.5505977612893483,3.64,3.28,1,1,1,0.2949234913868545,-1.7435595774162693,3.64,3.28,-3,-1,-1.9333873324249353,-0.2949234913868545,2,-2,-3,2,3,-2,2,-1.6384638410380807,2,3,2.2941573387056176,1,Right,2.1878749999997673,2,3.5167561499997846
35,R_2Yxsaos59MLqKPE,54,j,2,0,2110.9800000013784,Stop police brutality,Abolishing private prisons,-1,1,2,5,2,1.114155411905895,1.315316874191221,3.64,3.28,3,4,2,1.9333873324249353,0.5505977612893483,3.64,3.28,-2,3,-1.114155411905895,1.9333873324249353,5,1,-1,5,1,-5,5,-3.0475427443308303,-1,1,0.7647191129018726,1,Right,2.1109800000013785,2,3.5167561499997846
35,R_2Yxsaos59MLqKPE,55,f,1,1,3710.890000001993,Expel students with white nationlist views,Stop police brutality,-1,-1,-1,3,1,-1.3435403496512264,-0.21412135161252416,3.64,3.28,2,5,2,1.114155411905895,1.315316874191221,3.64,3.28,1,-2,1.3435403496512264,-1.114155411905895,3,-3,-2,3,2,3,-3,2.4576957615571215,-3,-2,-1.5294382258037451,0,Left,3.710890000001993,4,3.5167561499997846
35,R_2Yxsaos59MLqKPE,56,f,1,1,2047.0999999998603,Raise the minimum wage,Mask mandates,1,-1,2,3,2,1.114155411905895,-0.21412135161252416,3.64,3.28,2,4,4,1.114155411905895,0.5505977612893483,3.64,3.28,2,-2,1.114155411905895,-1.114155411905895,4,0,-1,4,1,4,-4,2.22831082381179,0,-1,-0.7647191129018724,0,Left,2.0470999999998605,2,3.5167561499997846
35,R_2Yxsaos59MLqKPE,57,j,2,0,1724.8849999995437,Raise the minimum wage,Stop police brutality,1,1,2,3,2,1.114155411905895,-0.21412135161252416,3.64,3.28,2,5,2,1.114155411905895,1.315316874191221,3.64,3.28,2,2,1.114155411905895,1.114155411905895,0,0,2,0,2,0,0,0,0,-2,-1.5294382258037451,1,Right,1.7248849999995437,1,3.5167561499997846
35,R_2Yxsaos59MLqKPE,58,f,1,1,3686.480000000214,Abolishing fraternities,Abolishing private prisons,-1,-1,2,4,1,1.114155411905895,0.5505977612893483,3.64,3.28,3,4,2,1.9333873324249353,0.5505977612893483,3.64,3.28,-2,-3,-1.114155411905895,-1.9333873324249353,1,-1,0,1,0,1,-1,0.8192319205190404,-1,0,0,0,Left,3.686480000000214,4,3.5167561499997846
35,R_2Yxsaos59MLqKPE,59,j,2,0,1627.4750000012573,Increased Gun regulations,Stop police brutality,1,1,0,3,3,-0.524308429132186,-0.21412135161252416,3.64,3.28,2,5,2,1.114155411905895,1.315316874191221,3.64,3.28,0,2,-0.524308429132186,1.114155411905895,2,2,2,2,2,-2,2,-1.638463841038081,-2,-2,-1.5294382258037451,1,Right,1.6274750000012572,1,3.5167561499997846
35,R_2Yxsaos59MLqKPE,60,f,1,1,3960.3249999999534,Mask mandates,Mandatory vaccinations,-1,-1,2,4,4,1.114155411905895,0.5505977612893483,3.64,3.28,-1,4,2,-1.3435403496512264,0.5505977612893483,3.64,3.28,-2,1,-1.114155411905895,1.3435403496512264,-3,3,0,3,0,-3,3,-2.4576957615571215,3,0,0,0,Left,3.9603249999999535,4,3.5167561499997846
35,R_2Yxsaos59MLqKPE,61,f,1,1,3645.6599999982864,Ban on research with animals,Mask mandates,1,1,1,6,1,0.2949234913868545,2.0800359870930936,3.64,3.28,2,4,4,1.114155411905895,0.5505977612893483,3.64,3.28,1,2,0.2949234913868545,1.114155411905895,-1,-1,2,1,2,-1,1,-0.8192319205190405,-1,2,1.5294382258037453,0,Left,3.645659999998286,4,3.5167561499997846
35,R_2Yxsaos59MLqKPE,62,f,1,1,1129.9450000005309,Abortion rights,Stop police brutality,1,-1,2,4,3,1.114155411905895,0.5505977612893483,3.64,3.28,2,5,2,1.114155411905895,1.315316874191221,3.64,3.28,2,-2,1.114155411905895,-1.114155411905895,4,0,-1,4,1,4,-4,2.22831082381179,0,-1,-0.7647191129018726,0,Left,1.1299450000005309,1,3.5167561499997846
35,R_2Yxsaos59MLqKPE,63,f,1,1,5089.915000000503,Abolishing private prisons,Stop police brutality,1,1,3,4,2,1.9333873324249353,0.5505977612893483,3.64,3.28,2,5,2,1.114155411905895,1.315316874191221,3.64,3.28,3,2,1.9333873324249353,1.114155411905895,1,1,-1,1,1,1,-1,0.8192319205190404,1,-1,-0.7647191129018726,0,Left,5.089915000000503,5,3.5167561499997846
35,R_2Yxsaos59MLqKPE,64,j,2,0,3552.379999997327,Bathrooms restricted based on biological sex,Mask mandates,-1,-1,0,1,1,-0.524308429132186,-1.7435595774162693,3.64,3.28,2,4,4,1.114155411905895,0.5505977612893483,3.64,3.28,-0,-2,0.524308429132186,-1.114155411905895,-2,2,3,2,3,2,-2,1.638463841038081,-2,-3,-2.2941573387056176,1,Right,3.552379999997327,4,3.5167561499997846
35,R_2Yxsaos59MLqKPE,65,f,1,1,1663.1649999981746,Stop police brutality,Bathrooms restricted based on biological sex,1,1,2,5,2,1.114155411905895,1.315316874191221,3.64,3.28,0,1,1,-0.524308429132186,-1.7435595774162693,3.64,3.28,2,0,1.114155411905895,-0.524308429132186,2,2,4,2,4,2,-2,1.638463841038081,2,4,3.0588764516074902,0,Left,1.6631649999981746,1,3.5167561499997846
35,R_2Yxsaos59MLqKPE,66,j,2,0,1900.779999999795,War on Drugs,Stop police brutality,-1,1,1,3,2,0.2949234913868545,-0.21412135161252416,3.64,3.28,2,5,2,1.114155411905895,1.315316874191221,3.64,3.28,-1,2,-0.2949234913868545,1.114155411905895,3,1,2,3,2,-3,3,-1.4090789032927495,-1,-2,-1.5294382258037451,1,Right,1.9007799999997952,1,3.5167561499997846
35,R_2Yxsaos59MLqKPE,67,j,2,0,3617.1199999991804,Stop police brutality,Ban on research with animals,1,1,2,5,2,1.114155411905895,1.315316874191221,3.64,3.28,1,6,1,0.2949234913868545,2.0800359870930936,3.64,3.28,2,1,1.114155411905895,0.2949234913868545,-1,-1,1,1,1,1,-1,0.8192319205190405,1,-1,-0.7647191129018727,1,Right,3.6171199999991805,4,3.5167561499997846
35,R_2Yxsaos59MLqKPE,68,j,2,0,2269.799999998184,"Boycott, Divest, and Sanction Israel",Stop police brutality,1,1,1,4,1,0.2949234913868545,0.5505977612893483,3.64,3.28,2,5,2,1.114155411905895,1.315316874191221,3.64,3.28,1,2,0.2949234913868545,1.114155411905895,1,1,1,1,1,-1,1,-0.8192319205190405,-1,-1,-0.7647191129018726,1,Right,2.2697999999981837,2,3.5167561499997846
35,R_2Yxsaos59MLqKPE,69,j,2,0,3898.399999998277,Ban on research with animals,Abolishing fraternities,-1,-1,1,6,1,0.2949234913868545,2.0800359870930936,3.64,3.28,2,4,1,1.114155411905895,0.5505977612893483,3.64,3.28,-1,-2,-0.2949234913868545,-1.114155411905895,-1,1,-2,1,2,1,-1,0.8192319205190405,-1,2,1.5294382258037453,1,Right,3.898399999998277,4,3.5167561499997846
35,R_2Yxsaos59MLqKPE,70,f,1,1,2794.7799999965355,Abolishing private prisons,Legalization of marijuana,1,-1,3,4,2,1.9333873324249353,0.5505977612893483,3.64,3.28,1,3,3,0.2949234913868545,-0.21412135161252416,3.64,3.28,3,-1,1.9333873324249353,-0.2949234913868545,4,2,1,4,1,4,-4,2.22831082381179,2,1,0.7647191129018724,0,Left,2.7947799999965355,3,3.5167561499997846
35,R_2Yxsaos59MLqKPE,71,j,2,0,1522.1950000012293,Lift COVID lockdowns,Abortion rights,1,1,-1,3,2,-1.3435403496512264,-0.21412135161252416,3.64,3.28,2,4,3,1.114155411905895,0.5505977612893483,3.64,3.28,-1,2,-1.3435403496512264,1.114155411905895,3,3,1,3,1,-3,3,-2.4576957615571215,-3,-1,-0.7647191129018724,1,Right,1.5221950000012294,1,3.5167561499997846
35,R_2Yxsaos59MLqKPE,72,j,2,0,2031.6700000003912,Abortion rights,Raise the minimum wage,-1,-1,2,4,3,1.114155411905895,0.5505977612893483,3.64,3.28,2,3,2,1.114155411905895,-0.21412135161252416,3.64,3.28,-2,-2,-1.114155411905895,-1.114155411905895,0,0,-1,0,1,0,0,0,0,1,0.7647191129018724,1,Right,2.0316700000003913,2,3.5167561499997846
35,R_2Yxsaos59MLqKPE,73,f,1,1,1783.029999998631,Abolishing private prisons,Mask mandates,1,1,3,4,2,1.9333873324249353,0.5505977612893483,3.64,3.28,2,4,4,1.114155411905895,0.5505977612893483,3.64,3.28,3,2,1.9333873324249353,1.114155411905895,1,1,0,1,0,1,-1,0.8192319205190404,1,0,0,0,Left,1.783029999998631,1,3.5167561499997846
35,R_2Yxsaos59MLqKPE,74,j,2,0,3087.260000000242,Abortion rights,Ban on research with animals,-1,1,2,4,3,1.114155411905895,0.5505977612893483,3.64,3.28,1,6,1,0.2949234913868545,2.0800359870930936,3.64,3.28,-2,1,-1.114155411905895,0.2949234913868545,3,-1,2,3,2,-3,3,-1.4090789032927495,1,-2,-1.5294382258037453,1,Right,3.087260000000242,3,3.5167561499997846
35,R_2Yxsaos59MLqKPE,75,f,1,1,5466.89499999769,Abolishing fraternities,Increased Gun regulations,-1,1,2,4,1,1.114155411905895,0.5505977612893483,3.64,3.28,0,3,3,-0.524308429132186,-0.21412135161252416,3.64,3.28,-2,0,-1.114155411905895,-0.524308429132186,-2,2,1,2,1,-2,2,-0.589846982773709,2,1,0.7647191129018724,0,Left,5.46689499999769,5,3.5167561499997846
35,R_2Yxsaos59MLqKPE,76,j,2,0,4569.425000001444,Mandatory vaccinations,Mask mandates,-1,1,-1,4,2,-1.3435403496512264,0.5505977612893483,3.64,3.28,2,4,4,1.114155411905895,0.5505977612893483,3.64,3.28,1,2,1.3435403496512264,1.114155411905895,1,3,0,1,0,-1,1,0.22938493774533142,-3,0,0,1,Right,4.569425000001443,5,3.5167561499997846
35,R_2Yxsaos59MLqKPE,77,j,2,0,2369.634999999078,Raise the minimum wage,Mask mandates,-1,1,2,3,2,1.114155411905895,-0.21412135161252416,3.64,3.28,2,4,4,1.114155411905895,0.5505977612893483,3.64,3.28,-2,2,-1.114155411905895,1.114155411905895,4,0,1,4,1,-4,4,-2.22831082381179,0,-1,-0.7647191129018724,1,Right,2.369634999999078,2,3.5167561499997846
35,R_2Yxsaos59MLqKPE,78,f,1,1,3191.275000001071,Gun-free campus police,Abolishing fraternities,1,-1,1,3,1,0.2949234913868545,-0.21412135161252416,3.64,3.28,2,4,1,1.114155411905895,0.5505977612893483,3.64,3.28,1,-2,0.2949234913868545,-1.114155411905895,3,-1,-1,3,1,3,-3,1.4090789032927495,-1,-1,-0.7647191129018724,0,Left,3.1912750000010712,4,3.5167561499997846
35,R_2Yxsaos59MLqKPE,79,j,2,0,3603.5699999993667,Abolishing private prisons,Stop police brutality,-1,-1,3,4,2,1.9333873324249353,0.5505977612893483,3.64,3.28,2,5,2,1.114155411905895,1.315316874191221,3.64,3.28,-3,-2,-1.9333873324249353,-1.114155411905895,1,-1,1,1,1,-1,1,-0.8192319205190404,1,-1,-0.7647191129018726,1,Right,3.6035699999993667,4,3.5167561499997846
35,R_2Yxsaos59MLqKPE,80,j,2,0,2250.985000002198,Ban on research with animals,Abolishing private prisons,-1,1,1,6,1,0.2949234913868545,2.0800359870930936,3.64,3.28,3,4,2,1.9333873324249353,0.5505977612893483,3.64,3.28,-1,3,-0.2949234913868545,1.9333873324249353,4,2,-2,4,2,-4,4,-2.22831082381179,-2,2,1.5294382258037453,1,Right,2.250985000002198,2,3.5167561499997846
35,R_2Yxsaos59MLqKPE,81,f,1,1,2985.8399999975227,Ban on ethnic Halloween costumes,Mask mandates,1,-1,1,1,1,0.2949234913868545,-1.7435595774162693,3.64,3.28,2,4,4,1.114155411905895,0.5505977612893483,3.64,3.28,1,-2,0.2949234913868545,-1.114155411905895,3,-1,-3,3,3,3,-3,1.4090789032927495,-1,-3,-2.2941573387056176,0,Left,2.9858399999975225,3,3.5167561499997846
35,R_2Yxsaos59MLqKPE,82,f,1,1,1608.7850000003818,Stop police brutality,Abolishing private prisons,1,-1,2,5,2,1.114155411905895,1.315316874191221,3.64,3.28,3,4,2,1.9333873324249353,0.5505977612893483,3.64,3.28,2,-3,1.114155411905895,-1.9333873324249353,5,-1,1,5,1,5,-5,3.0475427443308303,-1,1,0.7647191129018726,0,Left,1.6087850000003818,1,3.5167561499997846
35,R_2Yxsaos59MLqKPE,83,j,2,0,3808.3600000026636,Abolishing fraternities,Stop police brutality,1,1,2,4,1,1.114155411905895,0.5505977612893483,3.64,3.28,2,5,2,1.114155411905895,1.315316874191221,3.64,3.28,2,2,1.114155411905895,1.114155411905895,0,0,1,0,1,0,0,0,0,-1,-0.7647191129018726,1,Right,3.8083600000026636,4,3.5167561499997846
35,R_2Yxsaos59MLqKPE,84,j,2,0,2710.4949999994133,Abolishing fraternities,Build southern border wall,-1,-1,2,4,1,1.114155411905895,0.5505977612893483,3.64,3.28,-1,0,2,-1.3435403496512264,-2.5082786903181415,3.64,3.28,-2,1,-1.114155411905895,1.3435403496512264,3,-3,-4,3,4,-3,3,-2.4576957615571215,3,4,3.0588764516074898,1,Right,2.7104949999994132,3,3.5167561499997846
35,R_2Yxsaos59MLqKPE,85,f,1,1,1676.3199999986682,Abolishing private prisons,Cuts to National Parks budget,1,-1,3,4,2,1.9333873324249353,0.5505977612893483,3.64,3.28,-1,2,1,-1.3435403496512264,-0.9788404645143967,3.64,3.28,3,1,1.9333873324249353,1.3435403496512264,2,4,2,2,2,2,-2,0.589846982773709,4,2,1.5294382258037449,0,Left,1.6763199999986682,1,3.5167561499997846
35,R_2Yxsaos59MLqKPE,86,j,2,0,1664.0050000024494,Expel students with white nationlist views,Abolishing private prisons,-1,1,-1,3,1,-1.3435403496512264,-0.21412135161252416,3.64,3.28,3,4,2,1.9333873324249353,0.5505977612893483,3.64,3.28,1,3,1.3435403496512264,1.9333873324249353,2,4,1,2,1,-2,2,-0.589846982773709,-4,-1,-0.7647191129018724,1,Right,1.6640050000024493,1,3.5167561499997846
35,R_2Yxsaos59MLqKPE,87,f,1,1,2667.385000000708,Mask mandates,Abolishing fraternities,1,-1,2,4,4,1.114155411905895,0.5505977612893483,3.64,3.28,2,4,1,1.114155411905895,0.5505977612893483,3.64,3.28,2,-2,1.114155411905895,-1.114155411905895,4,0,0,4,0,4,-4,2.22831082381179,0,0,0,0,Left,2.6673850000007078,3,3.5167561499997846
35,R_2Yxsaos59MLqKPE,88,f,1,1,2524.570000001462,Abolishing fraternities,Mandatory vaccinations,1,1,2,4,1,1.114155411905895,0.5505977612893483,3.64,3.28,-1,4,2,-1.3435403496512264,0.5505977612893483,3.64,3.28,2,-1,1.114155411905895,-1.3435403496512264,3,3,0,3,0,3,-3,2.4576957615571215,3,0,0,0,Left,2.524570000001462,3,3.5167561499997846
35,R_2Yxsaos59MLqKPE,89,f,1,1,1639.9899999997579,Stop police brutality,Ban on ethnic Halloween costumes,1,1,2,5,2,1.114155411905895,1.315316874191221,3.64,3.28,1,1,1,0.2949234913868545,-1.7435595774162693,3.64,3.28,2,1,1.114155411905895,0.2949234913868545,1,1,4,1,4,1,-1,0.8192319205190405,1,4,3.0588764516074902,0,Left,1.6399899999997578,1,3.5167561499997846
35,R_2Yxsaos59MLqKPE,90,f,1,1,1598.8400000021793,Stop police brutality,Remove Christopher Columbus statues,1,-1,2,5,2,1.114155411905895,1.315316874191221,3.64,3.28,-1,2,1,-1.3435403496512264,-0.9788404645143967,3.64,3.28,2,1,1.114155411905895,1.3435403496512264,1,3,3,1,3,1,-1,-0.22938493774533142,3,3,2.2941573387056176,0,Left,1.5988400000021792,1,3.5167561499997846
35,R_2Yxsaos59MLqKPE,91,j,2,0,1377.7200000004377,Remove public Confederate memorials,Abolishing private prisons,-1,1,1,4,1,0.2949234913868545,0.5505977612893483,3.64,3.28,3,4,2,1.9333873324249353,0.5505977612893483,3.64,3.28,-1,3,-0.2949234913868545,1.9333873324249353,4,2,0,4,0,-4,4,-2.22831082381179,-2,0,0,1,Right,1.3777200000004377,1,3.5167561499997846
35,R_2Yxsaos59MLqKPE,92,j,2,0,2035.8549999983516,Stop police brutality,Raise the minimum wage,-1,1,2,5,2,1.114155411905895,1.315316874191221,3.64,3.28,2,3,2,1.114155411905895,-0.21412135161252416,3.64,3.28,-2,2,-1.114155411905895,1.114155411905895,4,0,-2,4,2,-4,4,-2.22831082381179,0,2,1.5294382258037451,1,Right,2.0358549999983517,2,3.5167561499997846
35,R_2Yxsaos59MLqKPE,93,j,2,0,1546.994999997085,Remove Christopher Columbus statues,Stop police brutality,1,1,-1,2,1,-1.3435403496512264,-0.9788404645143967,3.64,3.28,2,5,2,1.114155411905895,1.315316874191221,3.64,3.28,-1,2,-1.3435403496512264,1.114155411905895,3,3,3,3,3,-3,3,-2.4576957615571215,-3,-3,-2.2941573387056176,1,Right,1.546994999997085,1,3.5167561499997846
35,R_2Yxsaos59MLqKPE,94,f,1,1,2087.769999998389,Gun-free campus police,Abolishing private prisons,1,-1,1,3,1,0.2949234913868545,-0.21412135161252416,3.64,3.28,3,4,2,1.9333873324249353,0.5505977612893483,3.64,3.28,1,-3,0.2949234913868545,-1.9333873324249353,4,-2,-1,4,1,4,-4,2.22831082381179,-2,-1,-0.7647191129018724,0,Left,2.0877699999983887,2,3.5167561499997846
35,R_2Yxsaos59MLqKPE,95,f,1,1,1414.4100000010803,Stop police brutality,Raise the minimum wage,1,-1,2,5,2,1.114155411905895,1.315316874191221,3.64,3.28,2,3,2,1.114155411905895,-0.21412135161252416,3.64,3.28,2,-2,1.114155411905895,-1.114155411905895,4,0,2,4,2,4,-4,2.22831082381179,0,2,1.5294382258037451,0,Left,1.4144100000010804,1,3.5167561499997846
35,R_2Yxsaos59MLqKPE,96,j,2,0,3925.139999999432,Stop police brutality,Gun-free campus police,-1,-1,2,5,2,1.114155411905895,1.315316874191221,3.64,3.28,1,3,1,0.2949234913868545,-0.21412135161252416,3.64,3.28,-2,-1,-1.114155411905895,-0.2949234913868545,1,-1,-2,1,2,-1,1,-0.8192319205190405,1,2,1.5294382258037451,1,Right,3.925139999999432,4,3.5167561499997846
35,R_2Yxsaos59MLqKPE,97,j,2,0,2334.7700000014156,Abolishing private prisons,Remove Christopher Columbus statues,-1,-1,3,4,2,1.9333873324249353,0.5505977612893483,3.64,3.28,-1,2,1,-1.3435403496512264,-0.9788404645143967,3.64,3.28,-3,1,-1.9333873324249353,1.3435403496512264,4,-4,-2,4,2,-4,4,-3.2769276820761615,4,2,1.5294382258037449,1,Right,2.3347700000014155,2,3.5167561499997846
35,R_2Yxsaos59MLqKPE,98,f,1,1,1948.950000001816,Abolishing private prisons,Build southern border wall,1,1,3,4,2,1.9333873324249353,0.5505977612893483,3.64,3.28,-1,0,2,-1.3435403496512264,-2.5082786903181415,3.64,3.28,3,-1,1.9333873324249353,-1.3435403496512264,4,4,4,4,4,4,-4,3.2769276820761615,4,4,3.0588764516074898,0,Left,1.948950000001816,2,3.5167561499997846
35,R_2Yxsaos59MLqKPE,99,f,1,1,1741.6900000025053,Stop police brutality,Ban on ethnic Halloween costumes,1,-1,2,5,2,1.114155411905895,1.315316874191221,3.64,3.28,1,1,1,0.2949234913868545,-1.7435595774162693,3.64,3.28,2,-1,1.114155411905895,-0.2949234913868545,3,1,4,3,4,3,-3,1.4090789032927495,1,4,3.0588764516074902,0,Left,1.7416900000025053,1,3.5167561499997846
35,R_2Yxsaos59MLqKPE,100,j,2,0,1752.905000001192,Raise the minimum wage,Abolishing private prisons,1,1,2,3,2,1.114155411905895,-0.21412135161252416,3.64,3.28,3,4,2,1.9333873324249353,0.5505977612893483,3.64,3.28,2,3,1.114155411905895,1.9333873324249353,1,1,1,1,1,-1,1,-0.8192319205190404,-1,-1,-0.7647191129018724,1,Right,1.752905000001192,1,3.5167561499997846
28,R_2tbPVD1DV0HLe3w,1,j,2,0,1432.1999999284744,Mandatory vaccinations,Ban on research with animals,1,-1,2,7,2,0.16666666666666682,1.4534043220156219,4.805555555555555,5.805555555555555,3,5,3,1.023809523809524,-0.9802029148477445,4.805555555555555,5.805555555555555,2,-3,0.16666666666666682,-1.023809523809524,-5,1,-2,5,2,5,-5,1.1904761904761907,-1,2,2.4336072368633666,1,Right,1.4321999999284745,1,2.4052550000095367
28,R_2tbPVD1DV0HLe3w,2,j,2,0,3582.5,"Boycott, Divest, and Sanction Israel",Abolishing private prisons,1,1,3,5,3,1.023809523809524,-0.9802029148477445,4.805555555555555,5.805555555555555,3,6,3,1.023809523809524,0.23660070358393862,4.805555555555555,5.805555555555555,3,3,1.023809523809524,1.023809523809524,0,0,1,0,1,0,0,0,0,-1,-1.216803618431683,1,Right,3.5825,5,2.4052550000095367
28,R_2tbPVD1DV0HLe3w,3,j,2,0,20010.5,Mandatory drug tests for welfare recipients,Ban on research with animals,-1,1,2,6,2,0.16666666666666682,0.23660070358393862,4.805555555555555,5.805555555555555,3,5,3,1.023809523809524,-0.9802029148477445,4.805555555555555,5.805555555555555,-2,3,-0.16666666666666682,1.023809523809524,5,1,-1,5,1,-5,5,-1.1904761904761907,-1,1,1.216803618431683,1,Right,20.0105,5,2.4052550000095367
28,R_2tbPVD1DV0HLe3w,4,j,2,0,6690.900000095367,Mask mandates,Raise the minimum wage,1,-1,3,7,3,1.023809523809524,1.4534043220156219,4.805555555555555,5.805555555555555,2,4,4,0.16666666666666682,-2.1970065332794277,4.805555555555555,5.805555555555555,3,-2,1.023809523809524,-0.16666666666666682,-5,-1,-3,5,3,5,-5,1.1904761904761907,1,3,3.65041085529505,1,Right,6.690900000095367,5,2.4052550000095367
28,R_2tbPVD1DV0HLe3w,5,j,2,0,2268.2000000476837,Raise the minimum wage,Mask mandates,1,1,2,4,4,0.16666666666666682,-2.1970065332794277,4.805555555555555,5.805555555555555,3,7,3,1.023809523809524,1.4534043220156219,4.805555555555555,5.805555555555555,2,3,0.16666666666666682,1.023809523809524,1,1,3,1,3,-1,1,-0.8571428571428571,-1,-3,-3.65041085529505,1,Right,2.268200000047684,4,2.4052550000095367
28,R_2tbPVD1DV0HLe3w,6,j,2,0,4118.699999928474,Student worker unionization,Religious exemptions for discrimination laws,1,1,2,5,4,0.16666666666666682,-0.9802029148477445,4.805555555555555,5.805555555555555,3,5,3,1.023809523809524,-0.9802029148477445,4.805555555555555,5.805555555555555,2,3,0.16666666666666682,1.023809523809524,1,1,0,1,0,-1,1,-0.8571428571428571,-1,0,0,1,Right,4.118699999928475,5,2.4052550000095367
28,R_2tbPVD1DV0HLe3w,7,j,2,0,3752.5,Affirmative action,U.S. drone strikes in Afghanistan,-1,1,3,7,3,1.023809523809524,1.4534043220156219,4.805555555555555,5.805555555555555,2,6,2,0.16666666666666682,0.23660070358393862,4.805555555555555,5.805555555555555,-3,2,-1.023809523809524,0.16666666666666682,5,-1,-1,5,1,-5,5,-1.1904761904761907,1,1,1.2168036184316833,1,Right,3.7525,5,2.4052550000095367
28,R_2tbPVD1DV0HLe3w,8,j,2,0,2182.7000000476837,Mask mandates,Abolishing fraternities,1,-1,3,7,3,1.023809523809524,1.4534043220156219,4.805555555555555,5.805555555555555,-1,5,3,-2.4047619047619047,-0.9802029148477445,4.805555555555555,5.805555555555555,3,1,1.023809523809524,2.4047619047619047,-2,-4,-2,2,2,2,-2,-1.3809523809523807,4,2,2.4336072368633666,1,Right,2.1827000000476837,4,2.4052550000095367
28,R_2tbPVD1DV0HLe3w,9,j,2,0,8248.600000023842,Hardening schools/Arming teachers,Increased Gun regulations,-1,1,3,6,3,1.023809523809524,0.23660070358393862,4.805555555555555,5.805555555555555,1,5,3,-0.6904761904761902,-0.9802029148477445,4.805555555555555,5.805555555555555,-3,1,-1.023809523809524,-0.6904761904761902,4,-2,-1,4,1,-4,4,-0.3333333333333337,2,1,1.216803618431683,1,Right,8.248600000023842,5,2.4052550000095367
28,R_2tbPVD1DV0HLe3w,10,j,2,0,3029.3000000715256,Tuition increases,Hardening schools/Arming teachers,-1,1,0,6,3,-1.5476190476190474,0.23660070358393862,4.805555555555555,5.805555555555555,3,6,3,1.023809523809524,0.23660070358393862,4.805555555555555,5.805555555555555,-0,3,1.5476190476190474,1.023809523809524,3,3,0,3,0,-3,3,0.5238095238095235,-3,0,0,1,Right,3.0293000000715256,5,2.4052550000095367
28,R_2tbPVD1DV0HLe3w,11,j,2,0,2267.2999999523163,Climate change legislation,Cuts to National Parks budget,1,1,3,6,3,1.023809523809524,0.23660070358393862,4.805555555555555,5.805555555555555,2,7,2,0.16666666666666682,1.4534043220156219,4.805555555555555,5.805555555555555,3,2,1.023809523809524,0.16666666666666682,-1,-1,1,1,1,1,-1,0.8571428571428571,1,-1,-1.2168036184316833,1,Right,2.2672999999523165,4,2.4052550000095367
28,R_2tbPVD1DV0HLe3w,12,f,1,1,10956.899999976158,Abortion rights,Defund the police,1,1,3,5,3,1.023809523809524,-0.9802029148477445,4.805555555555555,5.805555555555555,2,7,2,0.16666666666666682,1.4534043220156219,4.805555555555555,5.805555555555555,3,2,1.023809523809524,0.16666666666666682,1,1,-2,1,2,1,-1,0.8571428571428571,1,-2,-2.4336072368633666,0,Left,10.956899999976159,5,2.4052550000095367
28,R_2tbPVD1DV0HLe3w,13,j,2,0,599.0999999046326,Hardening schools/Arming teachers,Raise the minimum wage,-1,-1,3,6,3,1.023809523809524,0.23660070358393862,4.805555555555555,5.805555555555555,2,4,4,0.16666666666666682,-2.1970065332794277,4.805555555555555,5.805555555555555,-3,-2,-1.023809523809524,-0.16666666666666682,1,-1,-2,1,2,-1,1,-0.8571428571428571,1,2,2.4336072368633666,1,Right,0.5990999999046326,1,2.4052550000095367
28,R_2tbPVD1DV0HLe3w,14,f,1,1,1030.1000000238419,On campus concealed carry,"Boycott, Divest, and Sanction Israel",-1,1,0,5,3,-1.5476190476190474,-0.9802029148477445,4.805555555555555,5.805555555555555,3,5,3,1.023809523809524,-0.9802029148477445,4.805555555555555,5.805555555555555,-0,3,1.5476190476190474,1.023809523809524,-3,-3,0,3,0,-3,3,0.5238095238095235,-3,0,0,0,Left,1.0301000000238418,1,2.4052550000095367
28,R_2tbPVD1DV0HLe3w,15,j,2,0,2643.100000023842,Mask mandates,Student worker unionization,-1,-1,3,7,3,1.023809523809524,1.4534043220156219,4.805555555555555,5.805555555555555,2,5,4,0.16666666666666682,-0.9802029148477445,4.805555555555555,5.805555555555555,-3,-2,-1.023809523809524,-0.16666666666666682,1,-1,-2,1,2,-1,1,-0.8571428571428571,1,2,2.4336072368633666,1,Right,2.643100000023842,5,2.4052550000095367
28,R_2tbPVD1DV0HLe3w,16,j,2,0,4187.600000023842,Affirmative action,University Campus should be a Sanctuary,1,-1,3,7,3,1.023809523809524,1.4534043220156219,4.805555555555555,5.805555555555555,1,7,3,-0.6904761904761902,1.4534043220156219,4.805555555555555,5.805555555555555,3,-1,1.023809523809524,0.6904761904761902,-4,-2,0,4,0,4,-4,0.3333333333333337,2,0,0,1,Right,4.187600000023842,5,2.4052550000095367
28,R_2tbPVD1DV0HLe3w,17,f,1,1,2564.600000023842,Affirmative action,Remove public Confederate memorials,1,-1,3,7,3,1.023809523809524,1.4534043220156219,4.805555555555555,5.805555555555555,2,6,2,0.16666666666666682,0.23660070358393862,4.805555555555555,5.805555555555555,3,-2,1.023809523809524,-0.16666666666666682,5,1,1,5,1,5,-5,1.1904761904761907,1,1,1.2168036184316833,0,Left,2.564600000023842,5,2.4052550000095367
28,R_2tbPVD1DV0HLe3w,18,f,1,1,1273,Hardening schools/Arming teachers,Tuition increases,-1,-1,3,6,3,1.023809523809524,0.23660070358393862,4.805555555555555,5.805555555555555,0,6,3,-1.5476190476190474,0.23660070358393862,4.805555555555555,5.805555555555555,-3,-0,-1.023809523809524,1.5476190476190474,-3,3,0,3,0,-3,3,-2.571428571428571,3,0,0,0,Left,1.273,1,2.4052550000095367
28,R_2tbPVD1DV0HLe3w,19,j,2,0,854.1999999284744,Defund Planned Parenthood,Climate change legislation,-1,1,3,6,3,1.023809523809524,0.23660070358393862,4.805555555555555,5.805555555555555,3,6,3,1.023809523809524,0.23660070358393862,4.805555555555555,5.805555555555555,-3,3,-1.023809523809524,1.023809523809524,6,0,0,6,0,-6,6,-2.047619047619048,0,0,0,1,Right,0.8541999999284744,1,2.4052550000095367
28,R_2tbPVD1DV0HLe3w,20,j,2,0,1637.0999999046326,Build southern border wall,Climate change legislation,1,1,0,5,3,-1.5476190476190474,-0.9802029148477445,4.805555555555555,5.805555555555555,3,6,3,1.023809523809524,0.23660070358393862,4.805555555555555,5.805555555555555,0,3,-1.5476190476190474,1.023809523809524,3,3,1,3,1,-3,3,-2.571428571428571,-3,-1,-1.216803618431683,1,Right,1.6370999999046325,2,2.4052550000095367
28,R_2tbPVD1DV0HLe3w,21,f,1,1,2863.7999999523163,Safe injection locations,War on Drugs,1,1,3,6,3,1.023809523809524,0.23660070358393862,4.805555555555555,5.805555555555555,1,6,2,-0.6904761904761902,0.23660070358393862,4.805555555555555,5.805555555555555,3,1,1.023809523809524,-0.6904761904761902,2,2,0,2,0,2,-2,1.7142857142857142,2,0,0,0,Left,2.8637999999523163,5,2.4052550000095367
28,R_2tbPVD1DV0HLe3w,22,j,2,0,1025.2000000476837,Affirmative action,Mandatory trigger warnings,1,1,3,7,3,1.023809523809524,1.4534043220156219,4.805555555555555,5.805555555555555,2,5,2,0.16666666666666682,-0.9802029148477445,4.805555555555555,5.805555555555555,3,2,1.023809523809524,0.16666666666666682,-1,-1,-2,1,2,1,-1,0.8571428571428571,1,2,2.4336072368633666,1,Right,1.0252000000476837,1,2.4052550000095367
28,R_2tbPVD1DV0HLe3w,23,f,1,1,1556.3000000715256,Abortion rights,Physician-assisted suicide,-1,1,3,5,3,1.023809523809524,-0.9802029148477445,4.805555555555555,5.805555555555555,1,6,2,-0.6904761904761902,0.23660070358393862,4.805555555555555,5.805555555555555,-3,1,-1.023809523809524,-0.6904761904761902,-4,2,-1,4,1,-4,4,-0.3333333333333337,2,-1,-1.216803618431683,0,Left,1.5563000000715255,2,2.4052550000095367
28,R_2tbPVD1DV0HLe3w,24,j,2,0,1937.3999999761581,Abortion rights,Physician-assisted suicide,-1,-1,3,5,3,1.023809523809524,-0.9802029148477445,4.805555555555555,5.805555555555555,1,6,2,-0.6904761904761902,0.23660070358393862,4.805555555555555,5.805555555555555,-3,-1,-1.023809523809524,0.6904761904761902,2,-2,1,2,1,-2,2,-1.7142857142857142,2,-1,-1.216803618431683,1,Right,1.9373999999761582,3,2.4052550000095367
28,R_2tbPVD1DV0HLe3w,25,j,2,0,1873.8999999761581,Safe injection locations,Raise the minimum wage,1,1,3,6,3,1.023809523809524,0.23660070358393862,4.805555555555555,5.805555555555555,2,4,4,0.16666666666666682,-2.1970065332794277,4.805555555555555,5.805555555555555,3,2,1.023809523809524,0.16666666666666682,-1,-1,-2,1,2,1,-1,0.8571428571428571,1,2,2.4336072368633666,1,Right,1.873899999976158,3,2.4052550000095367
28,R_2tbPVD1DV0HLe3w,26,f,1,1,1328.8999999761581,Climate change legislation,Affirmative action,1,1,3,6,3,1.023809523809524,0.23660070358393862,4.805555555555555,5.805555555555555,3,7,3,1.023809523809524,1.4534043220156219,4.805555555555555,5.805555555555555,3,3,1.023809523809524,1.023809523809524,0,0,-1,0,1,0,0,0,0,-1,-1.2168036184316833,0,Left,1.3288999999761582,1,2.4052550000095367
28,R_2tbPVD1DV0HLe3w,27,f,1,1,2462.7000000476837,Climate change legislation,Mandatory training on sexual consent,-1,1,3,6,3,1.023809523809524,0.23660070358393862,4.805555555555555,5.805555555555555,1,7,3,-0.6904761904761902,1.4534043220156219,4.805555555555555,5.805555555555555,-3,1,-1.023809523809524,-0.6904761904761902,-4,2,-1,4,1,-4,4,-0.3333333333333337,2,-1,-1.2168036184316833,0,Left,2.4627000000476835,5,2.4052550000095367
28,R_2tbPVD1DV0HLe3w,28,j,2,0,1672.8000000715256,Student worker unionization,Religious exemptions for discrimination laws,1,-1,2,5,4,0.16666666666666682,-0.9802029148477445,4.805555555555555,5.805555555555555,3,5,3,1.023809523809524,-0.9802029148477445,4.805555555555555,5.805555555555555,2,-3,0.16666666666666682,-1.023809523809524,-5,1,0,5,0,5,-5,1.1904761904761907,-1,0,0,1,Right,1.6728000000715255,2,2.4052550000095367
28,R_2tbPVD1DV0HLe3w,29,j,2,0,2383.2000000476837,Raise the minimum wage,"Boycott, Divest, and Sanction Israel",-1,-1,2,4,4,0.16666666666666682,-2.1970065332794277,4.805555555555555,5.805555555555555,3,5,3,1.023809523809524,-0.9802029148477445,4.805555555555555,5.805555555555555,-2,-3,-0.16666666666666682,-1.023809523809524,-1,1,1,1,1,1,-1,0.8571428571428571,-1,-1,-1.2168036184316833,1,Right,2.3832000000476836,4,2.4052550000095367
28,R_2tbPVD1DV0HLe3w,30,f,1,1,1901.1000000238419,Physician-assisted suicide,Ban on research with animals,1,1,1,6,2,-0.6904761904761902,0.23660070358393862,4.805555555555555,5.805555555555555,3,5,3,1.023809523809524,-0.9802029148477445,4.805555555555555,5.805555555555555,1,3,-0.6904761904761902,1.023809523809524,-2,-2,1,2,1,-2,2,-1.7142857142857142,-2,1,1.216803618431683,0,Left,1.9011000000238418,3,2.4052550000095367
28,R_2tbPVD1DV0HLe3w,31,f,1,1,2156.8000000715256,Physician-assisted suicide,Abolishing private prisons,1,-1,1,6,2,-0.6904761904761902,0.23660070358393862,4.805555555555555,5.805555555555555,3,6,3,1.023809523809524,0.23660070358393862,4.805555555555555,5.805555555555555,1,-3,-0.6904761904761902,-1.023809523809524,4,-2,0,4,0,4,-4,0.3333333333333337,-2,0,0,0,Left,2.1568000000715255,4,2.4052550000095367
28,R_2tbPVD1DV0HLe3w,32,j,2,0,4317.800000071526,Abortion rights,Mandatory training on sexual consent,1,1,3,5,3,1.023809523809524,-0.9802029148477445,4.805555555555555,5.805555555555555,1,7,3,-0.6904761904761902,1.4534043220156219,4.805555555555555,5.805555555555555,3,1,1.023809523809524,-0.6904761904761902,-2,-2,2,2,2,2,-2,1.7142857142857142,2,-2,-2.4336072368633666,1,Right,4.317800000071526,5,2.4052550000095367
28,R_2tbPVD1DV0HLe3w,33,f,1,1,3523.3000000715256,Detention of migrant children,Expel students with white nationlist views,-1,-1,2,6,2,0.16666666666666682,0.23660070358393862,4.805555555555555,5.805555555555555,3,6,3,1.023809523809524,0.23660070358393862,4.805555555555555,5.805555555555555,-2,-3,-0.16666666666666682,-1.023809523809524,1,-1,0,1,0,1,-1,0.8571428571428571,-1,0,0,0,Left,3.5233000000715258,5,2.4052550000095367
28,R_2tbPVD1DV0HLe3w,34,j,2,0,1445.2000000476837,Legalization of marijuana,Affirmative action,1,1,-1,5,3,-2.4047619047619047,-0.9802029148477445,4.805555555555555,5.805555555555555,3,7,3,1.023809523809524,1.4534043220156219,4.805555555555555,5.805555555555555,-1,3,-2.4047619047619047,1.023809523809524,4,4,2,4,2,-4,4,-3.428571428571429,-4,-2,-2.4336072368633666,1,Right,1.4452000000476837,2,2.4052550000095367
28,R_2tbPVD1DV0HLe3w,35,f,1,1,2106.4000000953674,Mask mandates,Abortion rights,1,-1,3,7,3,1.023809523809524,1.4534043220156219,4.805555555555555,5.805555555555555,3,5,3,1.023809523809524,-0.9802029148477445,4.805555555555555,5.805555555555555,3,-3,1.023809523809524,-1.023809523809524,6,0,2,6,2,6,-6,2.047619047619048,0,2,2.4336072368633666,0,Left,2.1064000000953675,3,2.4052550000095367
28,R_2tbPVD1DV0HLe3w,36,f,1,1,2224.7000000476837,Student worker unionization,Expel students with white nationlist views,-1,1,2,5,4,0.16666666666666682,-0.9802029148477445,4.805555555555555,5.805555555555555,3,6,3,1.023809523809524,0.23660070358393862,4.805555555555555,5.805555555555555,-2,3,-0.16666666666666682,1.023809523809524,-5,-1,-1,5,1,-5,5,-1.1904761904761907,-1,-1,-1.216803618431683,0,Left,2.2247000000476835,4,2.4052550000095367
28,R_2tbPVD1DV0HLe3w,37,j,2,0,2980.399999976158,Mask mandates,On campus concealed carry,1,-1,3,7,3,1.023809523809524,1.4534043220156219,4.805555555555555,5.805555555555555,0,5,3,-1.5476190476190474,-0.9802029148477445,4.805555555555555,5.805555555555555,3,-0,1.023809523809524,1.5476190476190474,-3,-3,-2,3,2,3,-3,-0.5238095238095235,3,2,2.4336072368633666,1,Right,2.980399999976158,5,2.4052550000095367
28,R_2tbPVD1DV0HLe3w,38,j,2,0,1433.2000000476837,Gun-free campus police,Abortion rights,-1,-1,1,7,2,-0.6904761904761902,1.4534043220156219,4.805555555555555,5.805555555555555,3,5,3,1.023809523809524,-0.9802029148477445,4.805555555555555,5.805555555555555,-1,-3,0.6904761904761902,-1.023809523809524,-2,2,-2,2,2,2,-2,1.7142857142857142,-2,2,2.4336072368633666,1,Right,1.4332000000476837,1,2.4052550000095367
28,R_2tbPVD1DV0HLe3w,39,f,1,1,1651.8000000715256,Remove public Confederate memorials,Expel students with white nationlist views,1,-1,2,6,2,0.16666666666666682,0.23660070358393862,4.805555555555555,5.805555555555555,3,6,3,1.023809523809524,0.23660070358393862,4.805555555555555,5.805555555555555,2,-3,0.16666666666666682,-1.023809523809524,5,-1,0,5,0,5,-5,1.1904761904761907,-1,0,0,0,Left,1.6518000000715256,2,2.4052550000095367
28,R_2tbPVD1DV0HLe3w,40,j,2,0,2083.5,Student worker unionization,Affirmative action,-1,1,2,5,4,0.16666666666666682,-0.9802029148477445,4.805555555555555,5.805555555555555,3,7,3,1.023809523809524,1.4534043220156219,4.805555555555555,5.805555555555555,-2,3,-0.16666666666666682,1.023809523809524,5,1,2,5,2,-5,5,-1.1904761904761907,-1,-2,-2.4336072368633666,1,Right,2.0835,3,2.4052550000095367
28,R_2tbPVD1DV0HLe3w,41,f,1,1,1614.2999999523163,Detention of migrant children,Safe injection locations,1,1,2,6,2,0.16666666666666682,0.23660070358393862,4.805555555555555,5.805555555555555,3,6,3,1.023809523809524,0.23660070358393862,4.805555555555555,5.805555555555555,2,3,0.16666666666666682,1.023809523809524,-1,-1,0,1,0,-1,1,-0.8571428571428571,-1,0,0,0,Left,1.6142999999523162,2,2.4052550000095367
28,R_2tbPVD1DV0HLe3w,42,f,1,1,2154.9000000953674,Expel students with white nationlist views,Ban on research with animals,1,-1,3,6,3,1.023809523809524,0.23660070358393862,4.805555555555555,5.805555555555555,3,5,3,1.023809523809524,-0.9802029148477445,4.805555555555555,5.805555555555555,3,-3,1.023809523809524,-1.023809523809524,6,0,1,6,1,6,-6,2.047619047619048,0,1,1.216803618431683,0,Left,2.1549000000953673,4,2.4052550000095367
28,R_2tbPVD1DV0HLe3w,43,j,2,0,2398.2999999523163,Remove Christopher Columbus statues,Defund Planned Parenthood,-1,-1,1,5,2,-0.6904761904761902,-0.9802029148477445,4.805555555555555,5.805555555555555,3,6,3,1.023809523809524,0.23660070358393862,4.805555555555555,5.805555555555555,-1,-3,0.6904761904761902,-1.023809523809524,-2,2,1,2,1,2,-2,1.7142857142857142,-2,-1,-1.216803618431683,1,Right,2.3982999999523162,4,2.4052550000095367
28,R_2tbPVD1DV0HLe3w,44,f,1,1,1902.3999999761581,Affirmative action,Mandatory drug tests for welfare recipients,1,1,3,7,3,1.023809523809524,1.4534043220156219,4.805555555555555,5.805555555555555,2,6,2,0.16666666666666682,0.23660070358393862,4.805555555555555,5.805555555555555,3,2,1.023809523809524,0.16666666666666682,1,1,1,1,1,1,-1,0.8571428571428571,1,1,1.2168036184316833,0,Left,1.902399999976158,3,2.4052550000095367
28,R_2tbPVD1DV0HLe3w,45,j,2,0,1112.3000000715256,Gun-free campus police,"Boycott, Divest, and Sanction Israel",-1,1,1,7,2,-0.6904761904761902,1.4534043220156219,4.805555555555555,5.805555555555555,3,5,3,1.023809523809524,-0.9802029148477445,4.805555555555555,5.805555555555555,-1,3,0.6904761904761902,1.023809523809524,4,2,-2,4,2,-4,4,-0.3333333333333337,-2,2,2.4336072368633666,1,Right,1.1123000000715255,1,2.4052550000095367
28,R_2tbPVD1DV0HLe3w,46,f,1,1,1867.5,"Boycott, Divest, and Sanction Israel","Boycott, Divest, and Sanction Israel",1,-1,3,5,3,1.023809523809524,-0.9802029148477445,4.805555555555555,5.805555555555555,3,5,3,1.023809523809524,-0.9802029148477445,4.805555555555555,5.805555555555555,3,-3,1.023809523809524,-1.023809523809524,6,0,0,6,0,6,-6,2.047619047619048,0,0,0,0,Left,1.8675,2,2.4052550000095367
28,R_2tbPVD1DV0HLe3w,47,f,1,1,2032,Affirmative action,War on Drugs,1,-1,3,7,3,1.023809523809524,1.4534043220156219,4.805555555555555,5.805555555555555,1,6,2,-0.6904761904761902,0.23660070358393862,4.805555555555555,5.805555555555555,3,-1,1.023809523809524,0.6904761904761902,4,2,1,4,1,4,-4,0.3333333333333337,2,1,1.2168036184316833,0,Left,2.032,3,2.4052550000095367
28,R_2tbPVD1DV0HLe3w,48,f,1,1,2354.7000000476837,Ban on research with animals,Affirmative action,-1,-1,3,5,3,1.023809523809524,-0.9802029148477445,4.805555555555555,5.805555555555555,3,7,3,1.023809523809524,1.4534043220156219,4.805555555555555,5.805555555555555,-3,-3,-1.023809523809524,-1.023809523809524,0,0,-2,0,2,0,0,0,0,-2,-2.4336072368633666,0,Left,2.354700000047684,4,2.4052550000095367
28,R_2tbPVD1DV0HLe3w,49,f,1,1,2112.5,Mandatory trigger warnings,Abortion rights,-1,1,2,5,2,0.16666666666666682,-0.9802029148477445,4.805555555555555,5.805555555555555,3,5,3,1.023809523809524,-0.9802029148477445,4.805555555555555,5.805555555555555,-2,3,-0.16666666666666682,1.023809523809524,-5,-1,0,5,0,-5,5,-1.1904761904761907,-1,0,0,0,Left,2.1125,3,2.4052550000095367
28,R_2tbPVD1DV0HLe3w,50,j,2,0,2046.6999999284744,Tuition increases,Ban on research with animals,1,1,0,6,3,-1.5476190476190474,0.23660070358393862,4.805555555555555,5.805555555555555,3,5,3,1.023809523809524,-0.9802029148477445,4.805555555555555,5.805555555555555,0,3,-1.5476190476190474,1.023809523809524,3,3,-1,3,1,-3,3,-2.571428571428571,-3,1,1.216803618431683,1,Right,2.0466999999284745,3,2.4052550000095367
28,R_2tbPVD1DV0HLe3w,51,f,1,1,1513.2000000476837,Mask mandates,Expel students with white nationlist views,1,-1,3,7,3,1.023809523809524,1.4534043220156219,4.805555555555555,5.805555555555555,3,6,3,1.023809523809524,0.23660070358393862,4.805555555555555,5.805555555555555,3,-3,1.023809523809524,-1.023809523809524,6,0,1,6,1,6,-6,2.047619047619048,0,1,1.2168036184316833,0,Left,1.5132000000476837,2,2.4052550000095367
28,R_2tbPVD1DV0HLe3w,52,f,1,1,1372.3000000715256,Mandatory training on sexual consent,"Boycott, Divest, and Sanction Israel",1,-1,1,7,3,-0.6904761904761902,1.4534043220156219,4.805555555555555,5.805555555555555,3,5,3,1.023809523809524,-0.9802029148477445,4.805555555555555,5.805555555555555,1,-3,-0.6904761904761902,-1.023809523809524,4,-2,2,4,2,4,-4,0.3333333333333337,-2,2,2.4336072368633666,0,Left,1.3723000000715255,1,2.4052550000095367
28,R_2tbPVD1DV0HLe3w,53,j,2,0,2055.100000023842,Climate change legislation,"Boycott, Divest, and Sanction Israel",-1,1,3,6,3,1.023809523809524,0.23660070358393862,4.805555555555555,5.805555555555555,3,5,3,1.023809523809524,-0.9802029148477445,4.805555555555555,5.805555555555555,-3,3,-1.023809523809524,1.023809523809524,6,0,-1,6,1,-6,6,-2.047619047619048,0,1,1.216803618431683,1,Right,2.0551000000238417,3,2.4052550000095367
28,R_2tbPVD1DV0HLe3w,54,f,1,1,1859.5999999046326,Raise the minimum wage,Safe injection locations,-1,1,2,4,4,0.16666666666666682,-2.1970065332794277,4.805555555555555,5.805555555555555,3,6,3,1.023809523809524,0.23660070358393862,4.805555555555555,5.805555555555555,-2,3,-0.16666666666666682,1.023809523809524,-5,-1,-2,5,2,-5,5,-1.1904761904761907,-1,-2,-2.4336072368633666,0,Left,1.8595999999046327,2,2.4052550000095367
28,R_2tbPVD1DV0HLe3w,55,j,2,0,1528.6000000238419,Mask mandates,Cuts to National Parks budget,1,1,3,7,3,1.023809523809524,1.4534043220156219,4.805555555555555,5.805555555555555,2,7,2,0.16666666666666682,1.4534043220156219,4.805555555555555,5.805555555555555,3,2,1.023809523809524,0.16666666666666682,-1,-1,0,1,0,1,-1,0.8571428571428571,1,0,0,1,Right,1.5286000000238418,2,2.4052550000095367
28,R_2tbPVD1DV0HLe3w,56,j,2,0,2047.7000000476837,Remove Christopher Columbus statues,Expel students with white nationlist views,1,1,1,5,2,-0.6904761904761902,-0.9802029148477445,4.805555555555555,5.805555555555555,3,6,3,1.023809523809524,0.23660070358393862,4.805555555555555,5.805555555555555,1,3,-0.6904761904761902,1.023809523809524,2,2,1,2,1,-2,2,-1.7142857142857142,-2,-1,-1.216803618431683,1,Right,2.047700000047684,3,2.4052550000095367
28,R_2tbPVD1DV0HLe3w,57,f,1,1,1198,Dorms determined by gender identity,Affirmative action,1,-1,2,5,3,0.16666666666666682,-0.9802029148477445,4.805555555555555,5.805555555555555,3,7,3,1.023809523809524,1.4534043220156219,4.805555555555555,5.805555555555555,2,-3,0.16666666666666682,-1.023809523809524,5,-1,-2,5,2,5,-5,1.1904761904761907,-1,-2,-2.4336072368633666,0,Left,1.198,1,2.4052550000095367
28,R_2tbPVD1DV0HLe3w,58,j,2,0,1904.3999999761581,Mandatory vaccinations,Ban on research with animals,-1,-1,2,7,2,0.16666666666666682,1.4534043220156219,4.805555555555555,5.805555555555555,3,5,3,1.023809523809524,-0.9802029148477445,4.805555555555555,5.805555555555555,-2,-3,-0.16666666666666682,-1.023809523809524,-1,1,-2,1,2,1,-1,0.8571428571428571,-1,2,2.4336072368633666,1,Right,1.904399999976158,3,2.4052550000095367
28,R_2tbPVD1DV0HLe3w,59,f,1,1,1869.3999999761581,Raise the minimum wage,Abortion rights,1,1,2,4,4,0.16666666666666682,-2.1970065332794277,4.805555555555555,5.805555555555555,3,5,3,1.023809523809524,-0.9802029148477445,4.805555555555555,5.805555555555555,2,3,0.16666666666666682,1.023809523809524,-1,-1,-1,1,1,-1,1,-0.8571428571428571,-1,-1,-1.2168036184316833,0,Left,1.8693999999761581,3,2.4052550000095367
28,R_2tbPVD1DV0HLe3w,60,f,1,1,2332.399999976158,Mask mandates,Defund the police,1,-1,3,7,3,1.023809523809524,1.4534043220156219,4.805555555555555,5.805555555555555,2,7,2,0.16666666666666682,1.4534043220156219,4.805555555555555,5.805555555555555,3,-2,1.023809523809524,-0.16666666666666682,5,1,0,5,0,5,-5,1.1904761904761907,1,0,0,0,Left,2.332399999976158,4,2.4052550000095367
28,R_2tbPVD1DV0HLe3w,61,f,1,1,2123.5,Religious exemptions for discrimination laws,On campus concealed carry,-1,-1,3,5,3,1.023809523809524,-0.9802029148477445,4.805555555555555,5.805555555555555,0,5,3,-1.5476190476190474,-0.9802029148477445,4.805555555555555,5.805555555555555,-3,-0,-1.023809523809524,1.5476190476190474,-3,3,0,3,0,-3,3,-2.571428571428571,3,0,0,0,Left,2.1235,3,2.4052550000095367
28,R_2tbPVD1DV0HLe3w,62,j,2,0,1952,Hardening schools/Arming teachers,Mandatory vaccinations,-1,-1,3,6,3,1.023809523809524,0.23660070358393862,4.805555555555555,5.805555555555555,2,7,2,0.16666666666666682,1.4534043220156219,4.805555555555555,5.805555555555555,-3,-2,-1.023809523809524,-0.16666666666666682,1,-1,1,1,1,-1,1,-0.8571428571428571,1,-1,-1.2168036184316833,1,Right,1.952,3,2.4052550000095367
28,R_2tbPVD1DV0HLe3w,63,j,2,0,2279.399999976158,Raise the minimum wage,Religious exemptions for discrimination laws,-1,1,2,4,4,0.16666666666666682,-2.1970065332794277,4.805555555555555,5.805555555555555,3,5,3,1.023809523809524,-0.9802029148477445,4.805555555555555,5.805555555555555,-2,3,-0.16666666666666682,1.023809523809524,5,1,1,5,1,-5,5,-1.1904761904761907,-1,-1,-1.2168036184316833,1,Right,2.279399999976158,4,2.4052550000095367
28,R_2tbPVD1DV0HLe3w,64,j,2,0,1887.6000000238419,Mask mandates,Ban on research with animals,1,1,3,7,3,1.023809523809524,1.4534043220156219,4.805555555555555,5.805555555555555,3,5,3,1.023809523809524,-0.9802029148477445,4.805555555555555,5.805555555555555,3,3,1.023809523809524,1.023809523809524,0,0,-2,0,2,0,0,0,0,2,2.4336072368633666,1,Right,1.8876000000238418,3,2.4052550000095367
28,R_2tbPVD1DV0HLe3w,65,j,2,0,1874.7000000476837,Expel students with white nationlist views,Raise the minimum wage,-1,1,3,6,3,1.023809523809524,0.23660070358393862,4.805555555555555,5.805555555555555,2,4,4,0.16666666666666682,-2.1970065332794277,4.805555555555555,5.805555555555555,-3,2,-1.023809523809524,0.16666666666666682,5,-1,-2,5,2,-5,5,-1.1904761904761907,1,2,2.4336072368633666,1,Right,1.8747000000476837,3,2.4052550000095367
28,R_2tbPVD1DV0HLe3w,66,f,1,1,2186,Abortion rights,Tuition increases,-1,-1,3,5,3,1.023809523809524,-0.9802029148477445,4.805555555555555,5.805555555555555,0,6,3,-1.5476190476190474,0.23660070358393862,4.805555555555555,5.805555555555555,-3,-0,-1.023809523809524,1.5476190476190474,-3,3,-1,3,1,-3,3,-2.571428571428571,3,-1,-1.216803618431683,0,Left,2.186,4,2.4052550000095367
28,R_2tbPVD1DV0HLe3w,67,f,1,1,1247.5,Defund Planned Parenthood,Mandatory trigger warnings,1,1,3,6,3,1.023809523809524,0.23660070358393862,4.805555555555555,5.805555555555555,2,5,2,0.16666666666666682,-0.9802029148477445,4.805555555555555,5.805555555555555,3,2,1.023809523809524,0.16666666666666682,1,1,1,1,1,1,-1,0.8571428571428571,1,1,1.216803618431683,0,Left,1.2475,1,2.4052550000095367
28,R_2tbPVD1DV0HLe3w,68,j,2,0,1315.5,Affirmative action,Religious exemptions for discrimination laws,-1,1,3,7,3,1.023809523809524,1.4534043220156219,4.805555555555555,5.805555555555555,3,5,3,1.023809523809524,-0.9802029148477445,4.805555555555555,5.805555555555555,-3,3,-1.023809523809524,1.023809523809524,6,0,-2,6,2,-6,6,-2.047619047619048,0,2,2.4336072368633666,1,Right,1.3155,1,2.4052550000095367
28,R_2tbPVD1DV0HLe3w,69,f,1,1,1248.6000000238419,Defund the police,Climate change legislation,-1,1,2,7,2,0.16666666666666682,1.4534043220156219,4.805555555555555,5.805555555555555,3,6,3,1.023809523809524,0.23660070358393862,4.805555555555555,5.805555555555555,-2,3,-0.16666666666666682,1.023809523809524,-5,-1,1,5,1,-5,5,-1.1904761904761907,-1,1,1.2168036184316833,0,Left,1.2486000000238417,1,2.4052550000095367
28,R_2tbPVD1DV0HLe3w,70,j,2,0,1994,Religious exemptions for discrimination laws,Remove Christopher Columbus statues,1,-1,3,5,3,1.023809523809524,-0.9802029148477445,4.805555555555555,5.805555555555555,1,5,2,-0.6904761904761902,-0.9802029148477445,4.805555555555555,5.805555555555555,3,-1,1.023809523809524,0.6904761904761902,-4,-2,0,4,0,4,-4,0.3333333333333337,2,0,0,1,Right,1.994,3,2.4052550000095367
28,R_2tbPVD1DV0HLe3w,71,f,1,1,1728.5,Remove public Confederate memorials,"Boycott, Divest, and Sanction Israel",1,-1,2,6,2,0.16666666666666682,0.23660070358393862,4.805555555555555,5.805555555555555,3,5,3,1.023809523809524,-0.9802029148477445,4.805555555555555,5.805555555555555,2,-3,0.16666666666666682,-1.023809523809524,5,-1,1,5,1,5,-5,1.1904761904761907,-1,1,1.216803618431683,0,Left,1.7285,2,2.4052550000095367
28,R_2tbPVD1DV0HLe3w,72,j,2,0,1013.6000000238419,Gun-free campus police,Climate change legislation,-1,1,1,7,2,-0.6904761904761902,1.4534043220156219,4.805555555555555,5.805555555555555,3,6,3,1.023809523809524,0.23660070358393862,4.805555555555555,5.805555555555555,-1,3,0.6904761904761902,1.023809523809524,4,2,-1,4,1,-4,4,-0.3333333333333337,-2,1,1.2168036184316833,1,Right,1.0136000000238419,1,2.4052550000095367
28,R_2tbPVD1DV0HLe3w,73,f,1,1,1348.7000000476837,Student worker unionization,Ban on research with animals,-1,-1,2,5,4,0.16666666666666682,-0.9802029148477445,4.805555555555555,5.805555555555555,3,5,3,1.023809523809524,-0.9802029148477445,4.805555555555555,5.805555555555555,-2,-3,-0.16666666666666682,-1.023809523809524,1,-1,0,1,0,1,-1,0.8571428571428571,-1,0,0,0,Left,1.3487000000476836,1,2.4052550000095367
28,R_2tbPVD1DV0HLe3w,74,f,1,1,1100.7999999523163,Remove Christopher Columbus statues,Ban on research with animals,1,1,1,5,2,-0.6904761904761902,-0.9802029148477445,4.805555555555555,5.805555555555555,3,5,3,1.023809523809524,-0.9802029148477445,4.805555555555555,5.805555555555555,1,3,-0.6904761904761902,1.023809523809524,-2,-2,0,2,0,-2,2,-1.7142857142857142,-2,0,0,0,Left,1.1007999999523164,1,2.4052550000095367
28,R_2tbPVD1DV0HLe3w,75,j,2,0,1890.7999999523163,Mask mandates,Detention of migrant children,-1,-1,3,7,3,1.023809523809524,1.4534043220156219,4.805555555555555,5.805555555555555,2,6,2,0.16666666666666682,0.23660070358393862,4.805555555555555,5.805555555555555,-3,-2,-1.023809523809524,-0.16666666666666682,1,-1,-1,1,1,-1,1,-0.8571428571428571,1,1,1.2168036184316833,1,Right,1.8907999999523162,3,2.4052550000095367
28,R_2tbPVD1DV0HLe3w,76,f,1,1,1013.7000000476837,Religious exemptions for discrimination laws,Ban on ethnic Halloween costumes,1,1,3,5,3,1.023809523809524,-0.9802029148477445,4.805555555555555,5.805555555555555,2,6,2,0.16666666666666682,0.23660070358393862,4.805555555555555,5.805555555555555,3,2,1.023809523809524,0.16666666666666682,1,1,-1,1,1,1,-1,0.8571428571428571,1,-1,-1.216803618431683,0,Left,1.0137000000476837,1,2.4052550000095367
28,R_2tbPVD1DV0HLe3w,77,j,2,0,1859.8999999761581,Abortion rights,Physician-assisted suicide,1,-1,3,5,3,1.023809523809524,-0.9802029148477445,4.805555555555555,5.805555555555555,1,6,2,-0.6904761904761902,0.23660070358393862,4.805555555555555,5.805555555555555,3,-1,1.023809523809524,0.6904761904761902,-4,-2,1,4,1,4,-4,0.3333333333333337,2,-1,-1.216803618431683,1,Right,1.859899999976158,2,2.4052550000095367
28,R_2tbPVD1DV0HLe3w,78,j,2,0,1462.2000000476837,"Boycott, Divest, and Sanction Israel",Raise the minimum wage,-1,1,3,5,3,1.023809523809524,-0.9802029148477445,4.805555555555555,5.805555555555555,2,4,4,0.16666666666666682,-2.1970065332794277,4.805555555555555,5.805555555555555,-3,2,-1.023809523809524,0.16666666666666682,5,-1,-1,5,1,-5,5,-1.1904761904761907,1,1,1.2168036184316833,1,Right,1.4622000000476838,2,2.4052550000095367
28,R_2tbPVD1DV0HLe3w,79,j,2,0,2130,Tuition increases,Mask mandates,1,1,0,6,3,-1.5476190476190474,0.23660070358393862,4.805555555555555,5.805555555555555,3,7,3,1.023809523809524,1.4534043220156219,4.805555555555555,5.805555555555555,0,3,-1.5476190476190474,1.023809523809524,3,3,1,3,1,-3,3,-2.571428571428571,-3,-1,-1.2168036184316833,1,Right,2.13,4,2.4052550000095367
28,R_2tbPVD1DV0HLe3w,80,j,2,0,3684.899999976158,Mask mandates,Mandatory vaccinations,-1,1,3,7,3,1.023809523809524,1.4534043220156219,4.805555555555555,5.805555555555555,2,7,2,0.16666666666666682,1.4534043220156219,4.805555555555555,5.805555555555555,-3,2,-1.023809523809524,0.16666666666666682,5,-1,0,5,0,-5,5,-1.1904761904761907,1,0,0,1,Right,3.684899999976158,5,2.4052550000095367
28,R_2tbPVD1DV0HLe3w,81,f,1,1,1742.8999999761581,Climate change legislation,Mandatory trigger warnings,-1,-1,3,6,3,1.023809523809524,0.23660070358393862,4.805555555555555,5.805555555555555,2,5,2,0.16666666666666682,-0.9802029148477445,4.805555555555555,5.805555555555555,-3,-2,-1.023809523809524,-0.16666666666666682,-1,1,1,1,1,-1,1,-0.8571428571428571,1,1,1.216803618431683,0,Left,1.742899999976158,2,2.4052550000095367
28,R_2tbPVD1DV0HLe3w,82,f,1,1,2333.5,Religious exemptions for discrimination laws,Abolishing fraternities,-1,-1,3,5,3,1.023809523809524,-0.9802029148477445,4.805555555555555,5.805555555555555,-1,5,3,-2.4047619047619047,-0.9802029148477445,4.805555555555555,5.805555555555555,-3,1,-1.023809523809524,2.4047619047619047,-4,4,0,4,0,-4,4,-3.428571428571429,4,0,0,0,Left,2.3335,4,2.4052550000095367
28,R_2tbPVD1DV0HLe3w,83,j,2,0,1287.2000000476837,Religious exemptions for discrimination laws,Defund the police,1,-1,3,5,3,1.023809523809524,-0.9802029148477445,4.805555555555555,5.805555555555555,2,7,2,0.16666666666666682,1.4534043220156219,4.805555555555555,5.805555555555555,3,-2,1.023809523809524,-0.16666666666666682,-5,-1,2,5,2,5,-5,1.1904761904761907,1,-2,-2.4336072368633666,1,Right,1.2872000000476838,1,2.4052550000095367
28,R_2tbPVD1DV0HLe3w,84,f,1,1,1938,Mandatory drug tests for welfare recipients,Expel students with white nationlist views,-1,1,2,6,2,0.16666666666666682,0.23660070358393862,4.805555555555555,5.805555555555555,3,6,3,1.023809523809524,0.23660070358393862,4.805555555555555,5.805555555555555,-2,3,-0.16666666666666682,1.023809523809524,-5,-1,0,5,0,-5,5,-1.1904761904761907,-1,0,0,0,Left,1.938,3,2.4052550000095367
28,R_2tbPVD1DV0HLe3w,85,j,2,0,1474,Increased Gun regulations,Abortion rights,-1,-1,1,5,3,-0.6904761904761902,-0.9802029148477445,4.805555555555555,5.805555555555555,3,5,3,1.023809523809524,-0.9802029148477445,4.805555555555555,5.805555555555555,-1,-3,0.6904761904761902,-1.023809523809524,-2,2,0,2,0,2,-2,1.7142857142857142,-2,0,0,1,Right,1.474,2,2.4052550000095367
28,R_2tbPVD1DV0HLe3w,86,j,2,0,2305.1999999284744,On campus concealed carry,Defund Planned Parenthood,-1,-1,0,5,3,-1.5476190476190474,-0.9802029148477445,4.805555555555555,5.805555555555555,3,6,3,1.023809523809524,0.23660070358393862,4.805555555555555,5.805555555555555,-0,-3,1.5476190476190474,-1.023809523809524,-3,3,1,3,1,3,-3,2.571428571428571,-3,-1,-1.216803618431683,1,Right,2.3051999999284742,4,2.4052550000095367
28,R_2tbPVD1DV0HLe3w,87,j,2,0,2432.2999999523163,Ban on research with animals,Safe injection locations,-1,-1,3,5,3,1.023809523809524,-0.9802029148477445,4.805555555555555,5.805555555555555,3,6,3,1.023809523809524,0.23660070358393862,4.805555555555555,5.805555555555555,-3,-3,-1.023809523809524,-1.023809523809524,0,0,1,0,1,0,0,0,0,-1,-1.216803618431683,1,Right,2.4322999999523165,4,2.4052550000095367
28,R_2tbPVD1DV0HLe3w,88,f,1,1,2477.399999976158,Abolishing private prisons,Dorms determined by gender identity,-1,1,3,6,3,1.023809523809524,0.23660070358393862,4.805555555555555,5.805555555555555,2,5,3,0.16666666666666682,-0.9802029148477445,4.805555555555555,5.805555555555555,-3,2,-1.023809523809524,0.16666666666666682,-5,1,1,5,1,-5,5,-1.1904761904761907,1,1,1.216803618431683,0,Left,2.477399999976158,5,2.4052550000095367
28,R_2tbPVD1DV0HLe3w,89,j,2,0,1655.2000000476837,Remove public Confederate memorials,"Boycott, Divest, and Sanction Israel",-1,-1,2,6,2,0.16666666666666682,0.23660070358393862,4.805555555555555,5.805555555555555,3,5,3,1.023809523809524,-0.9802029148477445,4.805555555555555,5.805555555555555,-2,-3,-0.16666666666666682,-1.023809523809524,-1,1,-1,1,1,1,-1,0.8571428571428571,-1,1,1.216803618431683,1,Right,1.6552000000476836,2,2.4052550000095367
28,R_2tbPVD1DV0HLe3w,90,j,2,0,1821.8999999761581,Climate change legislation,Remove Christopher Columbus statues,1,-1,3,6,3,1.023809523809524,0.23660070358393862,4.805555555555555,5.805555555555555,1,5,2,-0.6904761904761902,-0.9802029148477445,4.805555555555555,5.805555555555555,3,-1,1.023809523809524,0.6904761904761902,-4,-2,-1,4,1,4,-4,0.3333333333333337,2,1,1.216803618431683,1,Right,1.821899999976158,2,2.4052550000095367
28,R_2tbPVD1DV0HLe3w,91,j,2,0,2259.7000000476837,Affirmative action,Mask mandates,-1,1,3,7,3,1.023809523809524,1.4534043220156219,4.805555555555555,5.805555555555555,3,7,3,1.023809523809524,1.4534043220156219,4.805555555555555,5.805555555555555,-3,3,-1.023809523809524,1.023809523809524,6,0,0,6,0,-6,6,-2.047619047619048,0,0,0,1,Right,2.2597000000476837,4,2.4052550000095367
28,R_2tbPVD1DV0HLe3w,92,f,1,1,2262.9000000953674,Climate change legislation,Mask mandates,-1,-1,3,6,3,1.023809523809524,0.23660070358393862,4.805555555555555,5.805555555555555,3,7,3,1.023809523809524,1.4534043220156219,4.805555555555555,5.805555555555555,-3,-3,-1.023809523809524,-1.023809523809524,0,0,-1,0,1,0,0,0,0,-1,-1.2168036184316833,0,Left,2.2629000000953674,4,2.4052550000095367
28,R_2tbPVD1DV0HLe3w,93,j,2,0,2201.8000000715256,Affirmative action,War on Drugs,1,1,3,7,3,1.023809523809524,1.4534043220156219,4.805555555555555,5.805555555555555,1,6,2,-0.6904761904761902,0.23660070358393862,4.805555555555555,5.805555555555555,3,1,1.023809523809524,-0.6904761904761902,-2,-2,-1,2,1,2,-2,1.7142857142857142,2,1,1.2168036184316833,1,Right,2.2018000000715254,4,2.4052550000095367
28,R_2tbPVD1DV0HLe3w,94,j,2,0,1866.7000000476837,War on Drugs,Hardening schools/Arming teachers,-1,-1,1,6,2,-0.6904761904761902,0.23660070358393862,4.805555555555555,5.805555555555555,3,6,3,1.023809523809524,0.23660070358393862,4.805555555555555,5.805555555555555,-1,-3,0.6904761904761902,-1.023809523809524,-2,2,0,2,0,2,-2,1.7142857142857142,-2,0,0,1,Right,1.8667000000476837,2,2.4052550000095367
28,R_2tbPVD1DV0HLe3w,95,j,2,0,2435,Mandatory training on sexual consent,Affirmative action,1,1,1,7,3,-0.6904761904761902,1.4534043220156219,4.805555555555555,5.805555555555555,3,7,3,1.023809523809524,1.4534043220156219,4.805555555555555,5.805555555555555,1,3,-0.6904761904761902,1.023809523809524,2,2,0,2,0,-2,2,-1.7142857142857142,-2,0,0,1,Right,2.435,4,2.4052550000095367
28,R_2tbPVD1DV0HLe3w,96,j,2,0,3273.600000023842,Mandatory training on sexual consent,Defund Planned Parenthood,-1,-1,1,7,3,-0.6904761904761902,1.4534043220156219,4.805555555555555,5.805555555555555,3,6,3,1.023809523809524,0.23660070358393862,4.805555555555555,5.805555555555555,-1,-3,0.6904761904761902,-1.023809523809524,-2,2,-1,2,1,2,-2,1.7142857142857142,-2,1,1.2168036184316833,1,Right,3.273600000023842,5,2.4052550000095367
28,R_2tbPVD1DV0HLe3w,97,j,2,0,535.9000000953674,Defund Planned Parenthood,Mandatory training on sexual consent,1,1,3,6,3,1.023809523809524,0.23660070358393862,4.805555555555555,5.805555555555555,1,7,3,-0.6904761904761902,1.4534043220156219,4.805555555555555,5.805555555555555,3,1,1.023809523809524,-0.6904761904761902,-2,-2,1,2,1,2,-2,1.7142857142857142,2,-1,-1.2168036184316833,1,Right,0.5359000000953674,1,2.4052550000095367
28,R_2tbPVD1DV0HLe3w,98,f,1,1,4051.1999999284744,Defund the police,Hardening schools/Arming teachers,1,-1,2,7,2,0.16666666666666682,1.4534043220156219,4.805555555555555,5.805555555555555,3,6,3,1.023809523809524,0.23660070358393862,4.805555555555555,5.805555555555555,2,-3,0.16666666666666682,-1.023809523809524,5,-1,1,5,1,5,-5,1.1904761904761907,-1,1,1.2168036184316833,0,Left,4.051199999928475,5,2.4052550000095367
28,R_2tbPVD1DV0HLe3w,99,j,2,0,1601,Defund Planned Parenthood,Affirmative action,1,-1,3,6,3,1.023809523809524,0.23660070358393862,4.805555555555555,5.805555555555555,3,7,3,1.023809523809524,1.4534043220156219,4.805555555555555,5.805555555555555,3,-3,1.023809523809524,-1.023809523809524,-6,0,1,6,1,6,-6,2.047619047619048,0,-1,-1.2168036184316833,1,Right,1.601,2,2.4052550000095367
28,R_2tbPVD1DV0HLe3w,100,f,1,1,1694.3999999761581,Abolishing private prisons,Physician-assisted suicide,1,-1,3,6,3,1.023809523809524,0.23660070358393862,4.805555555555555,5.805555555555555,1,6,2,-0.6904761904761902,0.23660070358393862,4.805555555555555,5.805555555555555,3,-1,1.023809523809524,0.6904761904761902,4,2,0,4,0,4,-4,0.3333333333333337,2,0,0,0,Left,1.694399999976158,2,2.4052550000095367
27,R_2t56Fwl8ddfXWCS,1,j,2,0,1013.3000000119209,Hardening schools/Arming teachers,Dorms determined by gender identity,1,1,0,6,3,-1.5583874449479593,1.493440708747597,3.857142857142857,5.085714285714285,1,5,2,0.25973124082465976,-0.14001006644508668,3.857142857142857,5.085714285714285,0,1,-1.5583874449479593,0.25973124082465976,1,1,-1,1,1,-1,1,-1.818118685772619,-1,1,1.6334507751926837,1,Right,1.013300000011921,1,6.2309850000005955
27,R_2t56Fwl8ddfXWCS,2,f,1,1,4797.300000011921,Defund Planned Parenthood,Increased Gun regulations,-1,-1,2,3,2,2.077849926597279,-3.406911616830454,3.857142857142857,5.085714285714285,1,7,2,0.25973124082465976,3.1268914839402804,3.857142857142857,5.085714285714285,-2,-1,-2.077849926597279,-0.25973124082465976,-1,1,-4,1,4,-1,1,-1.8181186857726193,1,-4,-6.533803100770735,0,Left,4.797300000011921,4,6.2309850000005955
27,R_2t56Fwl8ddfXWCS,3,j,2,0,3366.100000023842,Affirmative action,Raise the minimum wage,1,1,1,6,1,0.25973124082465976,1.493440708747597,3.857142857142857,5.085714285714285,2,5,2,2.077849926597279,-0.14001006644508668,3.857142857142857,5.085714285714285,1,2,0.25973124082465976,2.077849926597279,1,1,-1,1,1,-1,1,-1.8181186857726193,-1,1,1.6334507751926837,1,Right,3.3661000000238417,3,6.2309850000005955
27,R_2t56Fwl8ddfXWCS,4,j,2,0,4611.699999988079,Raise the minimum wage,Defund Planned Parenthood,1,1,2,5,2,2.077849926597279,-0.14001006644508668,3.857142857142857,5.085714285714285,2,3,2,2.077849926597279,-3.406911616830454,3.857142857142857,5.085714285714285,2,2,2.077849926597279,2.077849926597279,0,0,-2,0,2,0,0,0,0,2,3.2669015503853673,1,Right,4.611699999988079,4,6.2309850000005955
27,R_2t56Fwl8ddfXWCS,5,j,2,0,4947.600000023842,Mask mandates,Increased Gun regulations,-1,-1,-1,4,2,-3.376506130720579,-1.7734608416377702,3.857142857142857,5.085714285714285,1,7,2,0.25973124082465976,3.1268914839402804,3.857142857142857,5.085714285714285,1,-1,3.376506130720579,-0.25973124082465976,-2,2,3,2,3,2,-2,3.6362373715452385,-2,-3,-4.900352325578051,1,Right,4.947600000023842,4,6.2309850000005955
27,R_2t56Fwl8ddfXWCS,6,f,1,1,3308.5,Defund Planned Parenthood,Mask mandates,-1,-1,2,3,2,2.077849926597279,-3.406911616830454,3.857142857142857,5.085714285714285,-1,4,2,-3.376506130720579,-1.7734608416377702,3.857142857142857,5.085714285714285,-2,1,-2.077849926597279,3.376506130720579,-3,3,-1,3,1,-3,3,-5.454356057317858,3,-1,-1.6334507751926837,0,Left,3.3085,3,6.2309850000005955
27,R_2t56Fwl8ddfXWCS,7,j,2,0,4730,Physician-assisted suicide,Defund Planned Parenthood,-1,-1,0,5,2,-1.5583874449479593,-0.14001006644508668,3.857142857142857,5.085714285714285,2,3,2,2.077849926597279,-3.406911616830454,3.857142857142857,5.085714285714285,-0,-2,1.5583874449479593,-2.077849926597279,-2,2,-2,2,2,2,-2,3.6362373715452385,-2,2,3.2669015503853673,1,Right,4.73,4,6.2309850000005955
27,R_2t56Fwl8ddfXWCS,8,j,2,0,4038.400000035763,Increased Gun regulations,Hardening schools/Arming teachers,-1,-1,1,7,2,0.25973124082465976,3.1268914839402804,3.857142857142857,5.085714285714285,0,6,3,-1.5583874449479593,1.493440708747597,3.857142857142857,5.085714285714285,-1,-0,-0.25973124082465976,1.5583874449479593,1,-1,-1,1,1,-1,1,-1.818118685772619,1,1,1.6334507751926834,1,Right,4.038400000035763,3,6.2309850000005955
27,R_2t56Fwl8ddfXWCS,9,j,2,0,3948.2999999523163,Affirmative action,Defund Planned Parenthood,1,1,1,6,1,0.25973124082465976,1.493440708747597,3.857142857142857,5.085714285714285,2,3,2,2.077849926597279,-3.406911616830454,3.857142857142857,5.085714285714285,1,2,0.25973124082465976,2.077849926597279,1,1,-3,1,3,-1,1,-1.8181186857726193,-1,3,4.900352325578051,1,Right,3.948299999952316,3,6.2309850000005955
27,R_2t56Fwl8ddfXWCS,10,f,1,1,4952.800000011921,Detention of migrant children,Defund Planned Parenthood,1,-1,1,5,2,0.25973124082465976,-0.14001006644508668,3.857142857142857,5.085714285714285,2,3,2,2.077849926597279,-3.406911616830454,3.857142857142857,5.085714285714285,1,-2,0.25973124082465976,-2.077849926597279,3,-1,2,3,2,3,-3,2.3375811674219387,-1,2,3.2669015503853673,0,Left,4.952800000011921,4,6.2309850000005955
27,R_2t56Fwl8ddfXWCS,11,j,2,0,6821.399999976158,Hardening schools/Arming teachers,Bathrooms restricted based on biological sex,1,-1,0,6,3,-1.5583874449479593,1.493440708747597,3.857142857142857,5.085714285714285,1,6,1,0.25973124082465976,1.493440708747597,3.857142857142857,5.085714285714285,0,-1,-1.5583874449479593,-0.25973124082465976,-1,1,0,1,0,1,-1,-1.2986562041232996,-1,0,0,1,Right,6.821399999976158,5,6.2309850000005955
27,R_2t56Fwl8ddfXWCS,12,j,2,0,4564.800000011921,"Boycott, Divest, and Sanction Israel",Raise the minimum wage,1,1,1,5,2,0.25973124082465976,-0.14001006644508668,3.857142857142857,5.085714285714285,2,5,2,2.077849926597279,-0.14001006644508668,3.857142857142857,5.085714285714285,1,2,0.25973124082465976,2.077849926597279,1,1,0,1,0,-1,1,-1.8181186857726193,-1,0,0,1,Right,4.564800000011921,4,6.2309850000005955
27,R_2t56Fwl8ddfXWCS,13,j,2,0,4031.899999976158,Increased Gun regulations,Defund the police,-1,1,1,7,2,0.25973124082465976,3.1268914839402804,3.857142857142857,5.085714285714285,1,5,2,0.25973124082465976,-0.14001006644508668,3.857142857142857,5.085714285714285,-1,1,-0.25973124082465976,0.25973124082465976,2,0,-2,2,2,-2,2,-0.5194624816493195,0,2,3.266901550385367,1,Right,4.031899999976158,3,6.2309850000005955
27,R_2t56Fwl8ddfXWCS,14,f,1,1,3132,Increased Gun regulations,Lift COVID lockdowns,1,1,1,7,2,0.25973124082465976,3.1268914839402804,3.857142857142857,5.085714285714285,1,6,1,0.25973124082465976,1.493440708747597,3.857142857142857,5.085714285714285,1,1,0.25973124082465976,0.25973124082465976,0,0,1,0,1,0,0,0,0,1,1.6334507751926834,0,Left,3.132,2,6.2309850000005955
27,R_2t56Fwl8ddfXWCS,15,j,2,0,2384.800000011921,Raise the minimum wage,Defund Planned Parenthood,-1,-1,2,5,2,2.077849926597279,-0.14001006644508668,3.857142857142857,5.085714285714285,2,3,2,2.077849926597279,-3.406911616830454,3.857142857142857,5.085714285714285,-2,-2,-2.077849926597279,-2.077849926597279,0,0,-2,0,2,0,0,0,0,2,3.2669015503853673,1,Right,2.384800000011921,2,6.2309850000005955
27,R_2t56Fwl8ddfXWCS,16,j,2,0,3989.899999976158,Lift COVID lockdowns,Student worker unionization,1,1,1,6,1,0.25973124082465976,1.493440708747597,3.857142857142857,5.085714285714285,1,5,2,0.25973124082465976,-0.14001006644508668,3.857142857142857,5.085714285714285,1,1,0.25973124082465976,0.25973124082465976,0,0,-1,0,1,0,0,0,0,1,1.6334507751926837,1,Right,3.989899999976158,3,6.2309850000005955
27,R_2t56Fwl8ddfXWCS,17,j,2,0,8200.399999976158,Mask mandates,Raise the minimum wage,1,-1,-1,4,2,-3.376506130720579,-1.7734608416377702,3.857142857142857,5.085714285714285,2,5,2,2.077849926597279,-0.14001006644508668,3.857142857142857,5.085714285714285,-1,-2,-3.376506130720579,-2.077849926597279,-1,3,1,1,1,1,-1,-1.2986562041232999,-3,-1,-1.6334507751926834,1,Right,8.200399999976158,5,6.2309850000005955
27,R_2t56Fwl8ddfXWCS,18,j,2,0,2310.800000011921,Defund Planned Parenthood,Raise the minimum wage,-1,1,2,3,2,2.077849926597279,-3.406911616830454,3.857142857142857,5.085714285714285,2,5,2,2.077849926597279,-0.14001006644508668,3.857142857142857,5.085714285714285,-2,2,-2.077849926597279,2.077849926597279,4,0,2,4,2,-4,4,-4.155699853194558,0,-2,-3.2669015503853673,1,Right,2.310800000011921,1,6.2309850000005955
27,R_2t56Fwl8ddfXWCS,19,f,1,1,4338.599999964237,Defund Planned Parenthood,Mask mandates,1,-1,2,3,2,2.077849926597279,-3.406911616830454,3.857142857142857,5.085714285714285,-1,4,2,-3.376506130720579,-1.7734608416377702,3.857142857142857,5.085714285714285,2,1,2.077849926597279,3.376506130720579,1,3,-1,1,1,1,-1,-1.2986562041232999,3,-1,-1.6334507751926837,0,Left,4.338599999964237,4,6.2309850000005955
27,R_2t56Fwl8ddfXWCS,20,j,2,0,2507.099999964237,Raise the minimum wage,Raise the minimum wage,-1,1,2,5,2,2.077849926597279,-0.14001006644508668,3.857142857142857,5.085714285714285,2,5,2,2.077849926597279,-0.14001006644508668,3.857142857142857,5.085714285714285,-2,2,-2.077849926597279,2.077849926597279,4,0,0,4,0,-4,4,-4.155699853194558,0,0,0,1,Right,2.5070999999642374,2,6.2309850000005955
27,R_2t56Fwl8ddfXWCS,21,j,2,0,8245.800000011921,Hardening schools/Arming teachers,U.S. drone strikes in Afghanistan,1,-1,0,6,3,-1.5583874449479593,1.493440708747597,3.857142857142857,5.085714285714285,1,5,2,0.25973124082465976,-0.14001006644508668,3.857142857142857,5.085714285714285,0,-1,-1.5583874449479593,-0.25973124082465976,-1,1,-1,1,1,1,-1,-1.2986562041232996,-1,1,1.6334507751926837,1,Right,8.24580000001192,5,6.2309850000005955
27,R_2t56Fwl8ddfXWCS,22,f,1,1,7165.199999988079,Raise the minimum wage,Bathrooms restricted based on biological sex,1,-1,2,5,2,2.077849926597279,-0.14001006644508668,3.857142857142857,5.085714285714285,1,6,1,0.25973124082465976,1.493440708747597,3.857142857142857,5.085714285714285,2,-1,2.077849926597279,-0.25973124082465976,3,1,-1,3,1,3,-3,2.3375811674219387,1,-1,-1.6334507751926837,0,Left,7.165199999988079,5,6.2309850000005955
27,R_2t56Fwl8ddfXWCS,23,j,2,0,4390.5,Raise the minimum wage,"Boycott, Divest, and Sanction Israel",1,-1,2,5,2,2.077849926597279,-0.14001006644508668,3.857142857142857,5.085714285714285,1,5,2,0.25973124082465976,-0.14001006644508668,3.857142857142857,5.085714285714285,2,-1,2.077849926597279,-0.25973124082465976,-3,-1,0,3,0,3,-3,2.3375811674219387,1,0,0,1,Right,4.3905,4,6.2309850000005955
27,R_2t56Fwl8ddfXWCS,24,f,1,1,4985,Defund Planned Parenthood,Increased Gun regulations,-1,1,2,3,2,2.077849926597279,-3.406911616830454,3.857142857142857,5.085714285714285,1,7,2,0.25973124082465976,3.1268914839402804,3.857142857142857,5.085714285714285,-2,1,-2.077849926597279,0.25973124082465976,-3,1,-4,3,4,-3,3,-2.3375811674219387,1,-4,-6.533803100770735,0,Left,4.985,4,6.2309850000005955
27,R_2t56Fwl8ddfXWCS,25,f,1,1,3643.100000023842,Gun-free campus police,Increased Gun regulations,-1,1,0,5,3,-1.5583874449479593,-0.14001006644508668,3.857142857142857,5.085714285714285,1,7,2,0.25973124082465976,3.1268914839402804,3.857142857142857,5.085714285714285,-0,1,1.5583874449479593,0.25973124082465976,-1,-1,-2,1,2,-1,1,1.2986562041232996,-1,-2,-3.266901550385367,0,Left,3.643100000023842,3,6.2309850000005955
27,R_2t56Fwl8ddfXWCS,26,f,1,1,4338.600000023842,Affirmative action,Raise the minimum wage,1,-1,1,6,1,0.25973124082465976,1.493440708747597,3.857142857142857,5.085714285714285,2,5,2,2.077849926597279,-0.14001006644508668,3.857142857142857,5.085714285714285,1,-2,0.25973124082465976,-2.077849926597279,3,-1,1,3,1,3,-3,2.3375811674219387,-1,1,1.6334507751926837,0,Left,4.338600000023842,4,6.2309850000005955
27,R_2t56Fwl8ddfXWCS,27,j,2,0,7575.099999964237,Affirmative action,Affirmative action,1,-1,1,6,1,0.25973124082465976,1.493440708747597,3.857142857142857,5.085714285714285,1,6,1,0.25973124082465976,1.493440708747597,3.857142857142857,5.085714285714285,1,-1,0.25973124082465976,-0.25973124082465976,-2,0,0,2,0,2,-2,0.5194624816493195,0,0,0,1,Right,7.575099999964237,5,6.2309850000005955
27,R_2t56Fwl8ddfXWCS,28,f,1,1,3504,Increased Gun regulations,Raise the minimum wage,-1,-1,1,7,2,0.25973124082465976,3.1268914839402804,3.857142857142857,5.085714285714285,2,5,2,2.077849926597279,-0.14001006644508668,3.857142857142857,5.085714285714285,-1,-2,-0.25973124082465976,-2.077849926597279,1,-1,2,1,2,1,-1,1.8181186857726193,-1,2,3.266901550385367,0,Left,3.504,3,6.2309850000005955
27,R_2t56Fwl8ddfXWCS,29,f,1,1,5572.900000035763,Raise the minimum wage,Increased Gun regulations,-1,1,2,5,2,2.077849926597279,-0.14001006644508668,3.857142857142857,5.085714285714285,1,7,2,0.25973124082465976,3.1268914839402804,3.857142857142857,5.085714285714285,-2,1,-2.077849926597279,0.25973124082465976,-3,1,-2,3,2,-3,3,-2.3375811674219387,1,-2,-3.266901550385367,0,Left,5.572900000035763,4,6.2309850000005955
27,R_2t56Fwl8ddfXWCS,30,j,2,0,5168.400000035763,Increased Gun regulations,Raise the minimum wage,-1,1,1,7,2,0.25973124082465976,3.1268914839402804,3.857142857142857,5.085714285714285,2,5,2,2.077849926597279,-0.14001006644508668,3.857142857142857,5.085714285714285,-1,2,-0.25973124082465976,2.077849926597279,3,1,-2,3,2,-3,3,-2.3375811674219387,-1,2,3.266901550385367,1,Right,5.168400000035763,4,6.2309850000005955
27,R_2t56Fwl8ddfXWCS,31,j,2,0,6096.199999988079,Increased Gun regulations,Raise the minimum wage,1,1,1,7,2,0.25973124082465976,3.1268914839402804,3.857142857142857,5.085714285714285,2,5,2,2.077849926597279,-0.14001006644508668,3.857142857142857,5.085714285714285,1,2,0.25973124082465976,2.077849926597279,1,1,-2,1,2,-1,1,-1.8181186857726193,-1,2,3.266901550385367,1,Right,6.096199999988079,5,6.2309850000005955
27,R_2t56Fwl8ddfXWCS,32,j,2,0,13460.699999988079,Increased Gun regulations,Mask mandates,1,1,1,7,2,0.25973124082465976,3.1268914839402804,3.857142857142857,5.085714285714285,-1,4,2,-3.376506130720579,-1.7734608416377702,3.857142857142857,5.085714285714285,1,-1,0.25973124082465976,-3.376506130720579,-2,-2,-3,2,3,2,-2,3.6362373715452385,2,3,4.900352325578051,1,Right,13.46069999998808,5,6.2309850000005955
27,R_2t56Fwl8ddfXWCS,33,f,1,1,3964.800000011921,Mask mandates,Raise the minimum wage,-1,1,-1,4,2,-3.376506130720579,-1.7734608416377702,3.857142857142857,5.085714285714285,2,5,2,2.077849926597279,-0.14001006644508668,3.857142857142857,5.085714285714285,1,2,3.376506130720579,2.077849926597279,-1,-3,-1,1,1,-1,1,1.2986562041232999,-3,-1,-1.6334507751926834,0,Left,3.964800000011921,3,6.2309850000005955
27,R_2t56Fwl8ddfXWCS,34,j,2,0,3170.699999988079,Mask mandates,Mask mandates,1,-1,-1,4,2,-3.376506130720579,-1.7734608416377702,3.857142857142857,5.085714285714285,-1,4,2,-3.376506130720579,-1.7734608416377702,3.857142857142857,5.085714285714285,-1,1,-3.376506130720579,3.376506130720579,2,0,0,2,0,-2,2,-6.753012261441158,0,0,0,1,Right,3.170699999988079,2,6.2309850000005955
27,R_2t56Fwl8ddfXWCS,35,j,2,0,5309.400000035763,Defund Planned Parenthood,Hardening schools/Arming teachers,1,1,2,3,2,2.077849926597279,-3.406911616830454,3.857142857142857,5.085714285714285,0,6,3,-1.5583874449479593,1.493440708747597,3.857142857142857,5.085714285714285,2,0,2.077849926597279,-1.5583874449479593,-2,-2,3,2,3,2,-2,3.6362373715452385,2,-3,-4.900352325578051,1,Right,5.309400000035763,4,6.2309850000005955
27,R_2t56Fwl8ddfXWCS,36,j,2,0,2706.600000023842,Defund Planned Parenthood,Increased Gun regulations,1,1,2,3,2,2.077849926597279,-3.406911616830454,3.857142857142857,5.085714285714285,1,7,2,0.25973124082465976,3.1268914839402804,3.857142857142857,5.085714285714285,2,1,2.077849926597279,0.25973124082465976,-1,-1,4,1,4,1,-1,1.8181186857726193,1,-4,-6.533803100770735,1,Right,2.7066000000238417,2,6.2309850000005955
27,R_2t56Fwl8ddfXWCS,37,j,2,0,2634.399999976158,Affirmative action,Increased Gun regulations,-1,1,1,6,1,0.25973124082465976,1.493440708747597,3.857142857142857,5.085714285714285,1,7,2,0.25973124082465976,3.1268914839402804,3.857142857142857,5.085714285714285,-1,1,-0.25973124082465976,0.25973124082465976,2,0,1,2,1,-2,2,-0.5194624816493195,0,-1,-1.6334507751926834,1,Right,2.634399999976158,2,6.2309850000005955
27,R_2t56Fwl8ddfXWCS,38,j,2,0,3844.400000035763,Raise the minimum wage,Expel students with white nationlist views,-1,1,2,5,2,2.077849926597279,-0.14001006644508668,3.857142857142857,5.085714285714285,1,5,2,0.25973124082465976,-0.14001006644508668,3.857142857142857,5.085714285714285,-2,1,-2.077849926597279,0.25973124082465976,3,-1,0,3,0,-3,3,-2.3375811674219387,1,0,0,1,Right,3.8444000000357628,3,6.2309850000005955
27,R_2t56Fwl8ddfXWCS,39,j,2,0,7370.800000011921,Lift COVID lockdowns,Abortion rights,1,-1,1,6,1,0.25973124082465976,1.493440708747597,3.857142857142857,5.085714285714285,1,5,2,0.25973124082465976,-0.14001006644508668,3.857142857142857,5.085714285714285,1,-1,0.25973124082465976,-0.25973124082465976,-2,0,-1,2,1,2,-2,0.5194624816493195,0,1,1.6334507751926837,1,Right,7.370800000011921,5,6.2309850000005955
27,R_2t56Fwl8ddfXWCS,40,f,1,1,5540.800000011921,Affirmative action,Raise the minimum wage,1,1,1,6,1,0.25973124082465976,1.493440708747597,3.857142857142857,5.085714285714285,2,5,2,2.077849926597279,-0.14001006644508668,3.857142857142857,5.085714285714285,1,2,0.25973124082465976,2.077849926597279,-1,-1,1,1,1,-1,1,-1.8181186857726193,-1,1,1.6334507751926837,0,Left,5.540800000011921,4,6.2309850000005955
27,R_2t56Fwl8ddfXWCS,41,j,2,0,3060.899999976158,Raise the minimum wage,Hardening schools/Arming teachers,-1,1,2,5,2,2.077849926597279,-0.14001006644508668,3.857142857142857,5.085714285714285,0,6,3,-1.5583874449479593,1.493440708747597,3.857142857142857,5.085714285714285,-2,0,-2.077849926597279,-1.5583874449479593,2,-2,1,2,1,-2,2,-0.5194624816493196,2,-1,-1.6334507751926837,1,Right,3.0608999999761584,2,6.2309850000005955
27,R_2t56Fwl8ddfXWCS,42,j,2,0,6549.099999964237,Defund Planned Parenthood,Lift COVID lockdowns,-1,1,2,3,2,2.077849926597279,-3.406911616830454,3.857142857142857,5.085714285714285,1,6,1,0.25973124082465976,1.493440708747597,3.857142857142857,5.085714285714285,-2,1,-2.077849926597279,0.25973124082465976,3,-1,3,3,3,-3,3,-2.3375811674219387,1,-3,-4.900352325578051,1,Right,6.549099999964238,5,6.2309850000005955
27,R_2t56Fwl8ddfXWCS,43,j,2,0,3601.699999988079,Remove public Confederate memorials,Lift COVID lockdowns,-1,1,0,5,3,-1.5583874449479593,-0.14001006644508668,3.857142857142857,5.085714285714285,1,6,1,0.25973124082465976,1.493440708747597,3.857142857142857,5.085714285714285,-0,1,1.5583874449479593,0.25973124082465976,1,1,1,1,1,-1,1,1.2986562041232996,-1,-1,-1.6334507751926837,1,Right,3.601699999988079,3,6.2309850000005955
27,R_2t56Fwl8ddfXWCS,44,f,1,1,5531.5,Mask mandates,Defund Planned Parenthood,1,1,-1,4,2,-3.376506130720579,-1.7734608416377702,3.857142857142857,5.085714285714285,2,3,2,2.077849926597279,-3.406911616830454,3.857142857142857,5.085714285714285,-1,2,-3.376506130720579,2.077849926597279,-3,-3,1,3,1,-3,3,-5.454356057317858,-3,1,1.6334507751926837,0,Left,5.5315,4,6.2309850000005955
27,R_2t56Fwl8ddfXWCS,45,f,1,1,7845.900000035763,Bathrooms restricted based on biological sex,Hardening schools/Arming teachers,1,-1,1,6,1,0.25973124082465976,1.493440708747597,3.857142857142857,5.085714285714285,0,6,3,-1.5583874449479593,1.493440708747597,3.857142857142857,5.085714285714285,1,-0,0.25973124082465976,1.5583874449479593,1,1,0,1,0,1,-1,-1.2986562041232996,1,0,0,0,Left,7.845900000035763,5,6.2309850000005955
27,R_2t56Fwl8ddfXWCS,46,j,2,0,4536.800000011921,Ban on ethnic Halloween costumes,Increased Gun regulations,-1,1,1,5,2,0.25973124082465976,-0.14001006644508668,3.857142857142857,5.085714285714285,1,7,2,0.25973124082465976,3.1268914839402804,3.857142857142857,5.085714285714285,-1,1,-0.25973124082465976,0.25973124082465976,2,0,2,2,2,-2,2,-0.5194624816493195,0,-2,-3.266901550385367,1,Right,4.536800000011921,4,6.2309850000005955
27,R_2t56Fwl8ddfXWCS,47,j,2,0,2340.199999988079,Defund Planned Parenthood,Mask mandates,-1,1,2,3,2,2.077849926597279,-3.406911616830454,3.857142857142857,5.085714285714285,-1,4,2,-3.376506130720579,-1.7734608416377702,3.857142857142857,5.085714285714285,-2,-1,-2.077849926597279,-3.376506130720579,1,-3,1,1,1,-1,1,1.2986562041232999,3,-1,-1.6334507751926837,1,Right,2.340199999988079,2,6.2309850000005955
27,R_2t56Fwl8ddfXWCS,48,f,1,1,3686.7999999523163,Increased Gun regulations,Raise the minimum wage,-1,1,1,7,2,0.25973124082465976,3.1268914839402804,3.857142857142857,5.085714285714285,2,5,2,2.077849926597279,-0.14001006644508668,3.857142857142857,5.085714285714285,-1,2,-0.25973124082465976,2.077849926597279,-3,-1,2,3,2,-3,3,-2.3375811674219387,-1,2,3.266901550385367,0,Left,3.686799999952316,3,6.2309850000005955
27,R_2t56Fwl8ddfXWCS,49,f,1,1,2847.300000011921,Lift COVID lockdowns,Defund Planned Parenthood,-1,-1,1,6,1,0.25973124082465976,1.493440708747597,3.857142857142857,5.085714285714285,2,3,2,2.077849926597279,-3.406911616830454,3.857142857142857,5.085714285714285,-1,-2,-0.25973124082465976,-2.077849926597279,1,-1,3,1,3,1,-1,1.8181186857726193,-1,3,4.900352325578051,0,Left,2.847300000011921,2,6.2309850000005955
27,R_2t56Fwl8ddfXWCS,50,j,2,0,3601.199999988079,Affirmative action,Mask mandates,-1,1,1,6,1,0.25973124082465976,1.493440708747597,3.857142857142857,5.085714285714285,-1,4,2,-3.376506130720579,-1.7734608416377702,3.857142857142857,5.085714285714285,-1,-1,-0.25973124082465976,-3.376506130720579,0,-2,-2,0,2,0,0,3.116774889895919,2,2,3.2669015503853673,1,Right,3.6011999999880793,3,6.2309850000005955
27,R_2t56Fwl8ddfXWCS,51,f,1,1,2670.899999976158,Bathrooms restricted based on biological sex,Raise the minimum wage,-1,-1,1,6,1,0.25973124082465976,1.493440708747597,3.857142857142857,5.085714285714285,2,5,2,2.077849926597279,-0.14001006644508668,3.857142857142857,5.085714285714285,-1,-2,-0.25973124082465976,-2.077849926597279,1,-1,1,1,1,1,-1,1.8181186857726193,-1,1,1.6334507751926837,0,Left,2.6708999999761582,2,6.2309850000005955
27,R_2t56Fwl8ddfXWCS,52,f,1,1,3818.2000000476837,Increased Gun regulations,Mask mandates,1,-1,1,7,2,0.25973124082465976,3.1268914839402804,3.857142857142857,5.085714285714285,-1,4,2,-3.376506130720579,-1.7734608416377702,3.857142857142857,5.085714285714285,1,1,0.25973124082465976,3.376506130720579,0,2,3,0,3,0,0,-3.116774889895919,2,3,4.900352325578051,0,Left,3.8182000000476837,3,6.2309850000005955
27,R_2t56Fwl8ddfXWCS,53,j,2,0,9603.600000023842,Raise the minimum wage,Ban on ethnic Halloween costumes,-1,-1,2,5,2,2.077849926597279,-0.14001006644508668,3.857142857142857,5.085714285714285,1,5,2,0.25973124082465976,-0.14001006644508668,3.857142857142857,5.085714285714285,-2,-1,-2.077849926597279,-0.25973124082465976,1,-1,0,1,0,-1,1,-1.8181186857726193,1,0,0,1,Right,9.603600000023842,5,6.2309850000005955
27,R_2t56Fwl8ddfXWCS,54,f,1,1,7574,Remove police from schools,Defund Planned Parenthood,-1,-1,1,5,2,0.25973124082465976,-0.14001006644508668,3.857142857142857,5.085714285714285,2,3,2,2.077849926597279,-3.406911616830454,3.857142857142857,5.085714285714285,-1,-2,-0.25973124082465976,-2.077849926597279,1,-1,2,1,2,1,-1,1.8181186857726193,-1,2,3.2669015503853673,0,Left,7.574,5,6.2309850000005955
27,R_2t56Fwl8ddfXWCS,55,f,1,1,10666.800000011921,Defund Planned Parenthood,Recognize Jerusalem as capital of Israel,1,-1,2,3,2,2.077849926597279,-3.406911616830454,3.857142857142857,5.085714285714285,1,5,2,0.25973124082465976,-0.14001006644508668,3.857142857142857,5.085714285714285,2,-1,2.077849926597279,-0.25973124082465976,3,1,-2,3,2,3,-3,2.3375811674219387,1,-2,-3.2669015503853673,0,Left,10.666800000011921,5,6.2309850000005955
27,R_2t56Fwl8ddfXWCS,56,j,2,0,2432.5,Raise the minimum wage,Mask mandates,-1,-1,2,5,2,2.077849926597279,-0.14001006644508668,3.857142857142857,5.085714285714285,-1,4,2,-3.376506130720579,-1.7734608416377702,3.857142857142857,5.085714285714285,-2,1,-2.077849926597279,3.376506130720579,3,-3,-1,3,1,-3,3,-5.454356057317858,3,1,1.6334507751926834,1,Right,2.4325,2,6.2309850000005955
