Subj,SID,Trial,Resp,Response,ChooseLeft,RT,IssueLeft,IssueRight,PosLeft,PosRight,LeftSupport,LeftMoral,LeftFamiliar,Support_z.x,RightSupport,RightMoral,RightFamiliar,Support_z.y,LeftAdj,RightAdj,ChoiceSupport,ChoiceSupportNaive,ChoiceMoral,ChoiceSupportDist,ChoiceMoralDist,LeftAdjDiff,RightAdjDiff,LeftDiff_raw,ChooseRight,RTs
10,R_2Yxsaos59MLqKPE,1,j,2,0,11985.65999999852,Abolishing private prisons,Raise the minimum wage,-1,-1,3,4,2,1.9333873324249353,2,3,2,1.114155411905895,-3,-2,1,-1,-1,1,1,-1,1,1,1,11.98565999999852
10,R_2Yxsaos59MLqKPE,2,j,2,0,3941.145000000717,Build southern border wall,Mask mandates,1,1,-1,0,2,-1.3435403496512264,2,4,4,1.114155411905895,-1,2,3,3,4,3,4,-3,3,-3,1,3.9411450000007173
10,R_2Yxsaos59MLqKPE,3,j,2,0,4618.1299999988405,Mask mandates,Raise the minimum wage,1,1,2,4,4,1.114155411905895,2,3,2,1.114155411905895,2,2,0,0,-1,0,1,0,0,0,1,4.618129999998841
10,R_2Yxsaos59MLqKPE,4,f,1,1,2953.079999999376,Abortion rights,Ban on research with animals,1,-1,2,4,3,1.114155411905895,1,6,1,0.2949234913868545,2,-1,3,1,-2,3,2,3,-3,1,0,2.953079999999376
10,R_2Yxsaos59MLqKPE,5,j,2,0,4385.320000001229,Abolishing private prisons,Abolishing private prisons,-1,1,3,4,2,1.9333873324249353,3,4,2,1.9333873324249353,-3,3,6,0,0,6,0,-6,6,0,1,4.385320000001229
10,R_2Yxsaos59MLqKPE,6,j,2,0,7041.014999998966,Abortion rights,Abolishing private prisons,-1,1,2,4,3,1.114155411905895,3,4,2,1.9333873324249353,-2,3,5,1,0,5,0,-5,5,-1,1,7.041014999998966
10,R_2Yxsaos59MLqKPE,7,j,2,0,14197.560000000522,Abolishing private prisons,Bathrooms restricted based on biological sex,-1,1,3,4,2,1.9333873324249353,0,1,1,-0.524308429132186,-3,0,3,-3,-3,3,3,-3,3,3,1,14.197560000000522
10,R_2Yxsaos59MLqKPE,8,j,2,0,2505.909999999916,Ban on ethnic Halloween costumes,Abolishing private prisons,1,1,1,1,1,0.2949234913868545,3,4,2,1.9333873324249353,1,3,2,2,3,2,3,-2,2,-2,1,2.505909999999916
10,R_2Yxsaos59MLqKPE,9,f,1,1,7539.130000001052,Abolishing fraternities,Cuts to National Parks budget,-1,1,2,4,1,1.114155411905895,-1,2,1,-1.3435403496512264,-2,-1,-1,3,2,1,2,-1,1,3,0,7.539130000001053
10,R_2Yxsaos59MLqKPE,10,j,2,0,2920.739999997779,Abolishing private prisons,Abortion rights,-1,1,3,4,2,1.9333873324249353,2,4,3,1.114155411905895,-3,2,5,-1,0,5,0,-5,5,1,1,2.920739999997779
10,R_2Yxsaos59MLqKPE,11,j,2,0,2710.4749999998603,Abortion rights,Stop police brutality,-1,1,2,4,3,1.114155411905895,2,5,2,1.114155411905895,-2,2,4,0,1,4,1,-4,4,0,1,2.7104749999998603
10,R_2Yxsaos59MLqKPE,12,f,1,1,2616.1050000009127,Abolishing fraternities,Bathrooms restricted based on biological sex,1,1,2,4,1,1.114155411905895,0,1,1,-0.524308429132186,2,0,2,2,3,2,3,2,-2,2,0,2.6161050000009127
10,R_2Yxsaos59MLqKPE,13,j,2,0,2386.3799999998882,Stop police brutality,Ban on ethnic Halloween costumes,-1,1,2,5,2,1.114155411905895,1,1,1,0.2949234913868545,-2,1,3,-1,-4,3,4,-3,3,1,1,2.386379999999888
10,R_2Yxsaos59MLqKPE,14,f,1,1,7272.8399999977555,Mask mandates,Lift COVID lockdowns,-1,1,2,4,4,1.114155411905895,-1,3,2,-1.3435403496512264,-2,-1,-1,3,1,1,1,-1,1,3,0,7.272839999997755
10,R_2Yxsaos59MLqKPE,15,j,2,0,4127.9950000025565,Abolishing private prisons,Build southern border wall,-1,-1,3,4,2,1.9333873324249353,-1,0,2,-1.3435403496512264,-3,1,4,-4,-4,4,4,-4,4,4,1,4.1279950000025565
10,R_2Yxsaos59MLqKPE,16,j,2,0,3182.085000000312,Abolishing private prisons,Affirmative action,-1,1,3,4,2,1.9333873324249353,1,4,1,0.2949234913868545,-3,1,4,-2,0,4,0,-4,4,2,1,3.182085000000312
10,R_2Yxsaos59MLqKPE,17,j,2,0,5531.914999999572,Build southern border wall,Abolishing private prisons,-1,1,-1,0,2,-1.3435403496512264,3,4,2,1.9333873324249353,1,3,2,4,4,2,4,-2,2,-4,1,5.531914999999572
10,R_2Yxsaos59MLqKPE,18,j,2,0,2322.6900000008754,Abolishing private prisons,Raise the minimum wage,-1,1,3,4,2,1.9333873324249353,2,3,2,1.114155411905895,-3,2,5,-1,-1,5,1,-5,5,1,1,2.3226900000008754
10,R_2Yxsaos59MLqKPE,19,j,2,0,3718.095000000205,Increased Gun regulations,Abolishing private prisons,-1,1,0,3,3,-0.524308429132186,3,4,2,1.9333873324249353,-0,3,3,3,1,3,1,-3,3,-3,1,3.718095000000205
10,R_2Yxsaos59MLqKPE,20,f,1,1,2045.945000001695,Abortion rights,Increased Gun regulations,1,1,2,4,3,1.114155411905895,0,3,3,-0.524308429132186,2,0,2,2,1,2,1,2,-2,2,0,2.045945000001695
10,R_2Yxsaos59MLqKPE,21,f,1,1,3275.2049999980954,Stop police brutality,Expel students with white nationlist views,1,-1,2,5,2,1.114155411905895,-1,3,1,-1.3435403496512264,2,1,1,3,2,1,2,1,-1,3,0,3.2752049999980954
10,R_2Yxsaos59MLqKPE,22,f,1,1,9121.100000000326,Physician-assisted suicide,Abolishing private prisons,-1,-1,1,4,2,0.2949234913868545,3,4,2,1.9333873324249353,-1,-3,2,-2,0,2,0,2,-2,-2,0,9.121100000000325
10,R_2Yxsaos59MLqKPE,23,f,1,1,11913.964999999735,Stop police brutality,Abortion rights,-1,-1,2,5,2,1.114155411905895,2,4,3,1.114155411905895,-2,-2,0,0,1,0,1,0,0,0,0,11.913964999999735
10,R_2Yxsaos59MLqKPE,24,j,2,0,3134.654999998049,Ban on ethnic Halloween costumes,Abolishing fraternities,-1,1,1,1,1,0.2949234913868545,2,4,1,1.114155411905895,-1,2,3,1,3,3,3,-3,3,-1,1,3.134654999998049
10,R_2Yxsaos59MLqKPE,25,j,2,0,2431.904999997583,Abolishing private prisons,Legalization of marijuana,-1,-1,3,4,2,1.9333873324249353,1,3,3,0.2949234913868545,-3,-1,2,-2,-1,2,1,-2,2,2,1,2.4319049999975832
10,R_2Yxsaos59MLqKPE,26,f,1,1,2065.370000000228,Ban on research with animals,Abolishing private prisons,1,-1,1,6,1,0.2949234913868545,3,4,2,1.9333873324249353,1,-3,4,-2,2,4,2,4,-4,-2,0,2.065370000000228
10,R_2Yxsaos59MLqKPE,27,j,2,0,8900.24500000081,Abolishing private prisons,Increased Gun regulations,-1,1,3,4,2,1.9333873324249353,0,3,3,-0.524308429132186,-3,0,3,-3,-1,3,1,-3,3,3,1,8.90024500000081
10,R_2Yxsaos59MLqKPE,28,j,2,0,2424.5799999989104,Abolishing private prisons,Ban on ethnic Halloween costumes,-1,1,3,4,2,1.9333873324249353,1,1,1,0.2949234913868545,-3,1,4,-2,-3,4,3,-4,4,2,1,2.4245799999989104
10,R_2Yxsaos59MLqKPE,29,j,2,0,2290.304999998538,Ban on ethnic Halloween costumes,Abolishing private prisons,-1,1,1,1,1,0.2949234913868545,3,4,2,1.9333873324249353,-1,3,4,2,3,4,3,-4,4,-2,1,2.2903049999985376
10,R_2Yxsaos59MLqKPE,30,j,2,0,3250.7650000007125,Abolishing fraternities,Ban on ethnic Halloween costumes,-1,-1,2,4,1,1.114155411905895,1,1,1,0.2949234913868545,-2,-1,1,-1,-3,1,3,-1,1,1,1,3.2507650000007127
10,R_2Yxsaos59MLqKPE,31,f,1,1,4965.384999999427,Mask mandates,Black Lives Matter,-1,-1,2,4,4,1.114155411905895,1,4,2,0.2949234913868545,-2,-1,-1,1,0,1,0,-1,1,1,0,4.9653849999994275
10,R_2Yxsaos59MLqKPE,32,f,1,1,2017.8299999970477,Stop police brutality,Ban on research with animals,1,-1,2,5,2,1.114155411905895,1,6,1,0.2949234913868545,2,-1,3,1,-1,3,1,3,-3,1,0,2.0178299999970477
10,R_2Yxsaos59MLqKPE,33,j,2,0,1596.5250000008382,Stop police brutality,Stop police brutality,-1,1,2,5,2,1.114155411905895,2,5,2,1.114155411905895,-2,2,4,0,0,4,0,-4,4,0,1,1.5965250000008382
10,R_2Yxsaos59MLqKPE,34,j,2,0,6293.144999999669,Build southern border wall,Mask mandates,1,-1,-1,0,2,-1.3435403496512264,2,4,4,1.114155411905895,-1,-2,-1,3,4,1,4,1,-1,-3,1,6.29314499999967
10,R_2Yxsaos59MLqKPE,35,j,2,0,1799.8049999986542,Build southern border wall,Stop police brutality,1,1,-1,0,2,-1.3435403496512264,2,5,2,1.114155411905895,-1,2,3,3,5,3,5,-3,3,-3,1,1.7998049999986543
10,R_2Yxsaos59MLqKPE,36,j,2,0,2874.5650000018068,Remove Christopher Columbus statues,Abolishing private prisons,1,1,-1,2,1,-1.3435403496512264,3,4,2,1.9333873324249353,-1,3,4,4,2,4,2,-4,4,-4,1,2.8745650000018066
10,R_2Yxsaos59MLqKPE,37,j,2,0,2070.0700000015786,Physician-assisted suicide,Stop police brutality,-1,1,1,4,2,0.2949234913868545,2,5,2,1.114155411905895,-1,2,3,1,1,3,1,-3,3,-1,1,2.0700700000015786
10,R_2Yxsaos59MLqKPE,38,j,2,0,2020.7399999998743,Raise the minimum wage,Abolishing private prisons,-1,1,2,3,2,1.114155411905895,3,4,2,1.9333873324249353,-2,3,5,1,1,5,1,-5,5,-1,1,2.0207399999998743
10,R_2Yxsaos59MLqKPE,39,j,2,0,2904.230000000214,Detention of migrant children,Abolishing private prisons,-1,1,-1,4,1,-1.3435403496512264,3,4,2,1.9333873324249353,1,3,2,4,0,2,0,-2,2,-4,1,2.904230000000214
10,R_2Yxsaos59MLqKPE,40,f,1,1,6045.704999996815,Build southern border wall,Abolishing private prisons,1,-1,-1,0,2,-1.3435403496512264,3,4,2,1.9333873324249353,-1,-3,2,-4,-4,2,4,2,-2,-4,0,6.045704999996815
10,R_2Yxsaos59MLqKPE,41,j,2,0,2960.975000001723,Build southern border wall,Stop police brutality,-1,1,-1,0,2,-1.3435403496512264,2,5,2,1.114155411905895,1,2,1,3,5,1,5,-1,1,-3,1,2.960975000001723
10,R_2Yxsaos59MLqKPE,42,f,1,1,3384.7399999976624,Raise the minimum wage,Stop police brutality,-1,-1,2,3,2,1.114155411905895,2,5,2,1.114155411905895,-2,-2,0,0,-2,0,2,0,0,0,0,3.384739999997662
10,R_2Yxsaos59MLqKPE,43,f,1,1,2565.934999998659,Abortion rights,Build southern border wall,1,-1,2,4,3,1.114155411905895,-1,0,2,-1.3435403496512264,2,1,1,3,4,1,4,1,-1,3,0,2.565934999998659
10,R_2Yxsaos59MLqKPE,44,f,1,1,12234.984999999171,Abolishing private prisons,Ban on research with animals,1,1,3,4,2,1.9333873324249353,1,6,1,0.2949234913868545,3,1,2,2,-2,2,2,2,-2,2,0,12.23498499999917
10,R_2Yxsaos59MLqKPE,45,f,1,1,7688.109999999171,Ban on research with animals,Abolishing private prisons,-1,-1,1,6,1,0.2949234913868545,3,4,2,1.9333873324249353,-1,-3,2,-2,2,2,2,2,-2,-2,0,7.688109999999171
10,R_2Yxsaos59MLqKPE,46,j,2,0,4432.015000002226,Mask mandates,Cuts to National Parks budget,1,1,2,4,4,1.114155411905895,-1,2,1,-1.3435403496512264,2,-1,-3,-3,-2,3,2,3,-3,3,1,4.432015000002226
10,R_2Yxsaos59MLqKPE,47,f,1,1,4223.659999999683,Cuts to National Parks budget,Abolishing private prisons,1,-1,-1,2,1,-1.3435403496512264,3,4,2,1.9333873324249353,-1,-3,2,-4,-2,2,2,2,-2,-4,0,4.2236599999996836
10,R_2Yxsaos59MLqKPE,48,f,1,1,2314.1599999980535,Abolishing fraternities,Ban on ethnic Halloween costumes,1,1,2,4,1,1.114155411905895,1,1,1,0.2949234913868545,2,1,1,1,3,1,3,1,-1,1,0,2.3141599999980533
10,R_2Yxsaos59MLqKPE,49,j,2,0,1369.7299999985844,Cuts to National Parks budget,Abortion rights,-1,1,-1,2,1,-1.3435403496512264,2,4,3,1.114155411905895,1,2,1,3,2,1,2,-1,1,-3,1,1.3697299999985844
10,R_2Yxsaos59MLqKPE,50,f,1,1,2402.409999998752,Abolishing private prisons,Bathrooms restricted based on biological sex,1,1,3,4,2,1.9333873324249353,0,1,1,-0.524308429132186,3,0,3,3,3,3,3,3,-3,3,0,2.402409999998752
10,R_2Yxsaos59MLqKPE,51,j,2,0,2827.744999998715,Abortion rights,Cuts to National Parks budget,-1,-1,2,4,3,1.114155411905895,-1,2,1,-1.3435403496512264,-2,1,3,-3,-2,3,2,-3,3,3,1,2.827744999998715
10,R_2Yxsaos59MLqKPE,52,f,1,1,2328.1499999975786,Mask mandates,Lift COVID lockdowns,1,-1,2,4,4,1.114155411905895,-1,3,2,-1.3435403496512264,2,1,1,3,1,1,1,1,-1,3,0,2.3281499999975788
10,R_2Yxsaos59MLqKPE,53,j,2,0,2187.874999999767,Abolishing private prisons,Ban on ethnic Halloween costumes,-1,-1,3,4,2,1.9333873324249353,1,1,1,0.2949234913868545,-3,-1,2,-2,-3,2,3,-2,2,2,1,2.1878749999997673
10,R_2Yxsaos59MLqKPE,54,j,2,0,2110.9800000013784,Stop police brutality,Abolishing private prisons,-1,1,2,5,2,1.114155411905895,3,4,2,1.9333873324249353,-2,3,5,1,-1,5,1,-5,5,-1,1,2.1109800000013785
10,R_2Yxsaos59MLqKPE,55,f,1,1,3710.890000001993,Expel students with white nationlist views,Stop police brutality,-1,-1,-1,3,1,-1.3435403496512264,2,5,2,1.114155411905895,1,-2,3,-3,-2,3,2,3,-3,-3,0,3.710890000001993
10,R_2Yxsaos59MLqKPE,56,f,1,1,2047.0999999998603,Raise the minimum wage,Mask mandates,1,-1,2,3,2,1.114155411905895,2,4,4,1.114155411905895,2,-2,4,0,-1,4,1,4,-4,0,0,2.0470999999998605
10,R_2Yxsaos59MLqKPE,57,j,2,0,1724.8849999995437,Raise the minimum wage,Stop police brutality,1,1,2,3,2,1.114155411905895,2,5,2,1.114155411905895,2,2,0,0,2,0,2,0,0,0,1,1.7248849999995437
10,R_2Yxsaos59MLqKPE,58,f,1,1,3686.480000000214,Abolishing fraternities,Abolishing private prisons,-1,-1,2,4,1,1.114155411905895,3,4,2,1.9333873324249353,-2,-3,1,-1,0,1,0,1,-1,-1,0,3.686480000000214
10,R_2Yxsaos59MLqKPE,59,j,2,0,1627.4750000012573,Increased Gun regulations,Stop police brutality,1,1,0,3,3,-0.524308429132186,2,5,2,1.114155411905895,0,2,2,2,2,2,2,-2,2,-2,1,1.6274750000012572
10,R_2Yxsaos59MLqKPE,60,f,1,1,3960.3249999999534,Mask mandates,Mandatory vaccinations,-1,-1,2,4,4,1.114155411905895,-1,4,2,-1.3435403496512264,-2,1,-3,3,0,3,0,-3,3,3,0,3.9603249999999535
10,R_2Yxsaos59MLqKPE,61,f,1,1,3645.6599999982864,Ban on research with animals,Mask mandates,1,1,1,6,1,0.2949234913868545,2,4,4,1.114155411905895,1,2,-1,-1,2,1,2,-1,1,-1,0,3.645659999998286
10,R_2Yxsaos59MLqKPE,62,f,1,1,1129.9450000005309,Abortion rights,Stop police brutality,1,-1,2,4,3,1.114155411905895,2,5,2,1.114155411905895,2,-2,4,0,-1,4,1,4,-4,0,0,1.1299450000005309
10,R_2Yxsaos59MLqKPE,63,f,1,1,5089.915000000503,Abolishing private prisons,Stop police brutality,1,1,3,4,2,1.9333873324249353,2,5,2,1.114155411905895,3,2,1,1,-1,1,1,1,-1,1,0,5.089915000000503
10,R_2Yxsaos59MLqKPE,64,j,2,0,3552.379999997327,Bathrooms restricted based on biological sex,Mask mandates,-1,-1,0,1,1,-0.524308429132186,2,4,4,1.114155411905895,-0,-2,-2,2,3,2,3,2,-2,-2,1,3.552379999997327
10,R_2Yxsaos59MLqKPE,65,f,1,1,1663.1649999981746,Stop police brutality,Bathrooms restricted based on biological sex,1,1,2,5,2,1.114155411905895,0,1,1,-0.524308429132186,2,0,2,2,4,2,4,2,-2,2,0,1.6631649999981746
10,R_2Yxsaos59MLqKPE,66,j,2,0,1900.779999999795,War on Drugs,Stop police brutality,-1,1,1,3,2,0.2949234913868545,2,5,2,1.114155411905895,-1,2,3,1,2,3,2,-3,3,-1,1,1.9007799999997952
10,R_2Yxsaos59MLqKPE,67,j,2,0,3617.1199999991804,Stop police brutality,Ban on research with animals,1,1,2,5,2,1.114155411905895,1,6,1,0.2949234913868545,2,1,-1,-1,1,1,1,1,-1,1,1,3.6171199999991805
10,R_2Yxsaos59MLqKPE,68,j,2,0,2269.799999998184,"Boycott, Divest, and Sanction Israel",Stop police brutality,1,1,1,4,1,0.2949234913868545,2,5,2,1.114155411905895,1,2,1,1,1,1,1,-1,1,-1,1,2.2697999999981837
10,R_2Yxsaos59MLqKPE,69,j,2,0,3898.399999998277,Ban on research with animals,Abolishing fraternities,-1,-1,1,6,1,0.2949234913868545,2,4,1,1.114155411905895,-1,-2,-1,1,-2,1,2,1,-1,-1,1,3.898399999998277
10,R_2Yxsaos59MLqKPE,70,f,1,1,2794.7799999965355,Abolishing private prisons,Legalization of marijuana,1,-1,3,4,2,1.9333873324249353,1,3,3,0.2949234913868545,3,-1,4,2,1,4,1,4,-4,2,0,2.7947799999965355
10,R_2Yxsaos59MLqKPE,71,j,2,0,1522.1950000012293,Lift COVID lockdowns,Abortion rights,1,1,-1,3,2,-1.3435403496512264,2,4,3,1.114155411905895,-1,2,3,3,1,3,1,-3,3,-3,1,1.5221950000012294
10,R_2Yxsaos59MLqKPE,72,j,2,0,2031.6700000003912,Abortion rights,Raise the minimum wage,-1,-1,2,4,3,1.114155411905895,2,3,2,1.114155411905895,-2,-2,0,0,-1,0,1,0,0,0,1,2.0316700000003913
10,R_2Yxsaos59MLqKPE,73,f,1,1,1783.029999998631,Abolishing private prisons,Mask mandates,1,1,3,4,2,1.9333873324249353,2,4,4,1.114155411905895,3,2,1,1,0,1,0,1,-1,1,0,1.783029999998631
10,R_2Yxsaos59MLqKPE,74,j,2,0,3087.260000000242,Abortion rights,Ban on research with animals,-1,1,2,4,3,1.114155411905895,1,6,1,0.2949234913868545,-2,1,3,-1,2,3,2,-3,3,1,1,3.087260000000242
10,R_2Yxsaos59MLqKPE,75,f,1,1,5466.89499999769,Abolishing fraternities,Increased Gun regulations,-1,1,2,4,1,1.114155411905895,0,3,3,-0.524308429132186,-2,0,-2,2,1,2,1,-2,2,2,0,5.46689499999769
10,R_2Yxsaos59MLqKPE,76,j,2,0,4569.425000001444,Mandatory vaccinations,Mask mandates,-1,1,-1,4,2,-1.3435403496512264,2,4,4,1.114155411905895,1,2,1,3,0,1,0,-1,1,-3,1,4.569425000001443
10,R_2Yxsaos59MLqKPE,77,j,2,0,2369.634999999078,Raise the minimum wage,Mask mandates,-1,1,2,3,2,1.114155411905895,2,4,4,1.114155411905895,-2,2,4,0,1,4,1,-4,4,0,1,2.369634999999078
10,R_2Yxsaos59MLqKPE,78,f,1,1,3191.275000001071,Gun-free campus police,Abolishing fraternities,1,-1,1,3,1,0.2949234913868545,2,4,1,1.114155411905895,1,-2,3,-1,-1,3,1,3,-3,-1,0,3.1912750000010712
10,R_2Yxsaos59MLqKPE,79,j,2,0,3603.5699999993667,Abolishing private prisons,Stop police brutality,-1,-1,3,4,2,1.9333873324249353,2,5,2,1.114155411905895,-3,-2,1,-1,1,1,1,-1,1,1,1,3.6035699999993667
10,R_2Yxsaos59MLqKPE,80,j,2,0,2250.985000002198,Ban on research with animals,Abolishing private prisons,-1,1,1,6,1,0.2949234913868545,3,4,2,1.9333873324249353,-1,3,4,2,-2,4,2,-4,4,-2,1,2.250985000002198
10,R_2Yxsaos59MLqKPE,81,f,1,1,2985.8399999975227,Ban on ethnic Halloween costumes,Mask mandates,1,-1,1,1,1,0.2949234913868545,2,4,4,1.114155411905895,1,-2,3,-1,-3,3,3,3,-3,-1,0,2.9858399999975225
10,R_2Yxsaos59MLqKPE,82,f,1,1,1608.7850000003818,Stop police brutality,Abolishing private prisons,1,-1,2,5,2,1.114155411905895,3,4,2,1.9333873324249353,2,-3,5,-1,1,5,1,5,-5,-1,0,1.6087850000003818
10,R_2Yxsaos59MLqKPE,83,j,2,0,3808.3600000026636,Abolishing fraternities,Stop police brutality,1,1,2,4,1,1.114155411905895,2,5,2,1.114155411905895,2,2,0,0,1,0,1,0,0,0,1,3.8083600000026636
10,R_2Yxsaos59MLqKPE,84,j,2,0,2710.4949999994133,Abolishing fraternities,Build southern border wall,-1,-1,2,4,1,1.114155411905895,-1,0,2,-1.3435403496512264,-2,1,3,-3,-4,3,4,-3,3,3,1,2.7104949999994132
10,R_2Yxsaos59MLqKPE,85,f,1,1,1676.3199999986682,Abolishing private prisons,Cuts to National Parks budget,1,-1,3,4,2,1.9333873324249353,-1,2,1,-1.3435403496512264,3,1,2,4,2,2,2,2,-2,4,0,1.6763199999986682
10,R_2Yxsaos59MLqKPE,86,j,2,0,1664.0050000024494,Expel students with white nationlist views,Abolishing private prisons,-1,1,-1,3,1,-1.3435403496512264,3,4,2,1.9333873324249353,1,3,2,4,1,2,1,-2,2,-4,1,1.6640050000024493
10,R_2Yxsaos59MLqKPE,87,f,1,1,2667.385000000708,Mask mandates,Abolishing fraternities,1,-1,2,4,4,1.114155411905895,2,4,1,1.114155411905895,2,-2,4,0,0,4,0,4,-4,0,0,2.6673850000007078
10,R_2Yxsaos59MLqKPE,88,f,1,1,2524.570000001462,Abolishing fraternities,Mandatory vaccinations,1,1,2,4,1,1.114155411905895,-1,4,2,-1.3435403496512264,2,-1,3,3,0,3,0,3,-3,3,0,2.524570000001462
10,R_2Yxsaos59MLqKPE,89,f,1,1,1639.9899999997579,Stop police brutality,Ban on ethnic Halloween costumes,1,1,2,5,2,1.114155411905895,1,1,1,0.2949234913868545,2,1,1,1,4,1,4,1,-1,1,0,1.6399899999997578
10,R_2Yxsaos59MLqKPE,90,f,1,1,1598.8400000021793,Stop police brutality,Remove Christopher Columbus statues,1,-1,2,5,2,1.114155411905895,-1,2,1,-1.3435403496512264,2,1,1,3,3,1,3,1,-1,3,0,1.5988400000021792
10,R_2Yxsaos59MLqKPE,91,j,2,0,1377.7200000004377,Remove public Confederate memorials,Abolishing private prisons,-1,1,1,4,1,0.2949234913868545,3,4,2,1.9333873324249353,-1,3,4,2,0,4,0,-4,4,-2,1,1.3777200000004377
10,R_2Yxsaos59MLqKPE,92,j,2,0,2035.8549999983516,Stop police brutality,Raise the minimum wage,-1,1,2,5,2,1.114155411905895,2,3,2,1.114155411905895,-2,2,4,0,-2,4,2,-4,4,0,1,2.0358549999983517
10,R_2Yxsaos59MLqKPE,93,j,2,0,1546.994999997085,Remove Christopher Columbus statues,Stop police brutality,1,1,-1,2,1,-1.3435403496512264,2,5,2,1.114155411905895,-1,2,3,3,3,3,3,-3,3,-3,1,1.546994999997085
10,R_2Yxsaos59MLqKPE,94,f,1,1,2087.769999998389,Gun-free campus police,Abolishing private prisons,1,-1,1,3,1,0.2949234913868545,3,4,2,1.9333873324249353,1,-3,4,-2,-1,4,1,4,-4,-2,0,2.0877699999983887
10,R_2Yxsaos59MLqKPE,95,f,1,1,1414.4100000010803,Stop police brutality,Raise the minimum wage,1,-1,2,5,2,1.114155411905895,2,3,2,1.114155411905895,2,-2,4,0,2,4,2,4,-4,0,0,1.4144100000010804
10,R_2Yxsaos59MLqKPE,96,j,2,0,3925.139999999432,Stop police brutality,Gun-free campus police,-1,-1,2,5,2,1.114155411905895,1,3,1,0.2949234913868545,-2,-1,1,-1,-2,1,2,-1,1,1,1,3.925139999999432
10,R_2Yxsaos59MLqKPE,97,j,2,0,2334.7700000014156,Abolishing private prisons,Remove Christopher Columbus statues,-1,-1,3,4,2,1.9333873324249353,-1,2,1,-1.3435403496512264,-3,1,4,-4,-2,4,2,-4,4,4,1,2.3347700000014155
10,R_2Yxsaos59MLqKPE,98,f,1,1,1948.950000001816,Abolishing private prisons,Build southern border wall,1,1,3,4,2,1.9333873324249353,-1,0,2,-1.3435403496512264,3,-1,4,4,4,4,4,4,-4,4,0,1.948950000001816
10,R_2Yxsaos59MLqKPE,99,f,1,1,1741.6900000025053,Stop police brutality,Ban on ethnic Halloween costumes,1,-1,2,5,2,1.114155411905895,1,1,1,0.2949234913868545,2,-1,3,1,4,3,4,3,-3,1,0,1.7416900000025053
10,R_2Yxsaos59MLqKPE,100,j,2,0,1752.905000001192,Raise the minimum wage,Abolishing private prisons,1,1,2,3,2,1.114155411905895,3,4,2,1.9333873324249353,2,3,1,1,1,1,1,-1,1,-1,1,1.752905000001192
8,R_2tbPVD1DV0HLe3w,1,j,2,0,1432.1999999284744,Mandatory vaccinations,Ban on research with animals,1,-1,2,7,2,0.16666666666666682,3,5,3,1.023809523809524,2,-3,-5,1,-2,5,2,5,-5,-1,1,1.4321999999284745
8,R_2tbPVD1DV0HLe3w,2,j,2,0,3582.5,"Boycott, Divest, and Sanction Israel",Abolishing private prisons,1,1,3,5,3,1.023809523809524,3,6,3,1.023809523809524,3,3,0,0,1,0,1,0,0,0,1,3.5825
8,R_2tbPVD1DV0HLe3w,3,j,2,0,20010.5,Mandatory drug tests for welfare recipients,Ban on research with animals,-1,1,2,6,2,0.16666666666666682,3,5,3,1.023809523809524,-2,3,5,1,-1,5,1,-5,5,-1,1,20.0105
8,R_2tbPVD1DV0HLe3w,4,j,2,0,6690.900000095367,Mask mandates,Raise the minimum wage,1,-1,3,7,3,1.023809523809524,2,4,4,0.16666666666666682,3,-2,-5,-1,-3,5,3,5,-5,1,1,6.690900000095367
8,R_2tbPVD1DV0HLe3w,5,j,2,0,2268.2000000476837,Raise the minimum wage,Mask mandates,1,1,2,4,4,0.16666666666666682,3,7,3,1.023809523809524,2,3,1,1,3,1,3,-1,1,-1,1,2.268200000047684
8,R_2tbPVD1DV0HLe3w,6,j,2,0,4118.699999928474,Student worker unionization,Religious exemptions for discrimination laws,1,1,2,5,4,0.16666666666666682,3,5,3,1.023809523809524,2,3,1,1,0,1,0,-1,1,-1,1,4.118699999928475
8,R_2tbPVD1DV0HLe3w,7,j,2,0,3752.5,Affirmative action,U.S. drone strikes in Afghanistan,-1,1,3,7,3,1.023809523809524,2,6,2,0.16666666666666682,-3,2,5,-1,-1,5,1,-5,5,1,1,3.7525
8,R_2tbPVD1DV0HLe3w,8,j,2,0,2182.7000000476837,Mask mandates,Abolishing fraternities,1,-1,3,7,3,1.023809523809524,-1,5,3,-2.4047619047619047,3,1,-2,-4,-2,2,2,2,-2,4,1,2.1827000000476837
8,R_2tbPVD1DV0HLe3w,9,j,2,0,8248.600000023842,Hardening schools/Arming teachers,Increased Gun regulations,-1,1,3,6,3,1.023809523809524,1,5,3,-0.6904761904761902,-3,1,4,-2,-1,4,1,-4,4,2,1,8.248600000023842
8,R_2tbPVD1DV0HLe3w,10,j,2,0,3029.3000000715256,Tuition increases,Hardening schools/Arming teachers,-1,1,0,6,3,-1.5476190476190474,3,6,3,1.023809523809524,-0,3,3,3,0,3,0,-3,3,-3,1,3.0293000000715256
8,R_2tbPVD1DV0HLe3w,11,j,2,0,2267.2999999523163,Climate change legislation,Cuts to National Parks budget,1,1,3,6,3,1.023809523809524,2,7,2,0.16666666666666682,3,2,-1,-1,1,1,1,1,-1,1,1,2.2672999999523165
8,R_2tbPVD1DV0HLe3w,12,f,1,1,10956.899999976158,Abortion rights,Defund the police,1,1,3,5,3,1.023809523809524,2,7,2,0.16666666666666682,3,2,1,1,-2,1,2,1,-1,1,0,10.956899999976159
8,R_2tbPVD1DV0HLe3w,13,j,2,0,599.0999999046326,Hardening schools/Arming teachers,Raise the minimum wage,-1,-1,3,6,3,1.023809523809524,2,4,4,0.16666666666666682,-3,-2,1,-1,-2,1,2,-1,1,1,1,0.5990999999046326
8,R_2tbPVD1DV0HLe3w,14,f,1,1,1030.1000000238419,On campus concealed carry,"Boycott, Divest, and Sanction Israel",-1,1,0,5,3,-1.5476190476190474,3,5,3,1.023809523809524,-0,3,-3,-3,0,3,0,-3,3,-3,0,1.0301000000238418
8,R_2tbPVD1DV0HLe3w,15,j,2,0,2643.100000023842,Mask mandates,Student worker unionization,-1,-1,3,7,3,1.023809523809524,2,5,4,0.16666666666666682,-3,-2,1,-1,-2,1,2,-1,1,1,1,2.643100000023842
8,R_2tbPVD1DV0HLe3w,16,j,2,0,4187.600000023842,Affirmative action,University Campus should be a Sanctuary,1,-1,3,7,3,1.023809523809524,1,7,3,-0.6904761904761902,3,-1,-4,-2,0,4,0,4,-4,2,1,4.187600000023842
8,R_2tbPVD1DV0HLe3w,17,f,1,1,2564.600000023842,Affirmative action,Remove public Confederate memorials,1,-1,3,7,3,1.023809523809524,2,6,2,0.16666666666666682,3,-2,5,1,1,5,1,5,-5,1,0,2.564600000023842
8,R_2tbPVD1DV0HLe3w,18,f,1,1,1273,Hardening schools/Arming teachers,Tuition increases,-1,-1,3,6,3,1.023809523809524,0,6,3,-1.5476190476190474,-3,-0,-3,3,0,3,0,-3,3,3,0,1.273
8,R_2tbPVD1DV0HLe3w,19,j,2,0,854.1999999284744,Defund Planned Parenthood,Climate change legislation,-1,1,3,6,3,1.023809523809524,3,6,3,1.023809523809524,-3,3,6,0,0,6,0,-6,6,0,1,0.8541999999284744
8,R_2tbPVD1DV0HLe3w,20,j,2,0,1637.0999999046326,Build southern border wall,Climate change legislation,1,1,0,5,3,-1.5476190476190474,3,6,3,1.023809523809524,0,3,3,3,1,3,1,-3,3,-3,1,1.6370999999046325
8,R_2tbPVD1DV0HLe3w,21,f,1,1,2863.7999999523163,Safe injection locations,War on Drugs,1,1,3,6,3,1.023809523809524,1,6,2,-0.6904761904761902,3,1,2,2,0,2,0,2,-2,2,0,2.8637999999523163
8,R_2tbPVD1DV0HLe3w,22,j,2,0,1025.2000000476837,Affirmative action,Mandatory trigger warnings,1,1,3,7,3,1.023809523809524,2,5,2,0.16666666666666682,3,2,-1,-1,-2,1,2,1,-1,1,1,1.0252000000476837
8,R_2tbPVD1DV0HLe3w,23,f,1,1,1556.3000000715256,Abortion rights,Physician-assisted suicide,-1,1,3,5,3,1.023809523809524,1,6,2,-0.6904761904761902,-3,1,-4,2,-1,4,1,-4,4,2,0,1.5563000000715255
8,R_2tbPVD1DV0HLe3w,24,j,2,0,1937.3999999761581,Abortion rights,Physician-assisted suicide,-1,-1,3,5,3,1.023809523809524,1,6,2,-0.6904761904761902,-3,-1,2,-2,1,2,1,-2,2,2,1,1.9373999999761582
8,R_2tbPVD1DV0HLe3w,25,j,2,0,1873.8999999761581,Safe injection locations,Raise the minimum wage,1,1,3,6,3,1.023809523809524,2,4,4,0.16666666666666682,3,2,-1,-1,-2,1,2,1,-1,1,1,1.873899999976158
8,R_2tbPVD1DV0HLe3w,26,f,1,1,1328.8999999761581,Climate change legislation,Affirmative action,1,1,3,6,3,1.023809523809524,3,7,3,1.023809523809524,3,3,0,0,-1,0,1,0,0,0,0,1.3288999999761582
8,R_2tbPVD1DV0HLe3w,27,f,1,1,2462.7000000476837,Climate change legislation,Mandatory training on sexual consent,-1,1,3,6,3,1.023809523809524,1,7,3,-0.6904761904761902,-3,1,-4,2,-1,4,1,-4,4,2,0,2.4627000000476835
8,R_2tbPVD1DV0HLe3w,28,j,2,0,1672.8000000715256,Student worker unionization,Religious exemptions for discrimination laws,1,-1,2,5,4,0.16666666666666682,3,5,3,1.023809523809524,2,-3,-5,1,0,5,0,5,-5,-1,1,1.6728000000715255
8,R_2tbPVD1DV0HLe3w,29,j,2,0,2383.2000000476837,Raise the minimum wage,"Boycott, Divest, and Sanction Israel",-1,-1,2,4,4,0.16666666666666682,3,5,3,1.023809523809524,-2,-3,-1,1,1,1,1,1,-1,-1,1,2.3832000000476836
8,R_2tbPVD1DV0HLe3w,30,f,1,1,1901.1000000238419,Physician-assisted suicide,Ban on research with animals,1,1,1,6,2,-0.6904761904761902,3,5,3,1.023809523809524,1,3,-2,-2,1,2,1,-2,2,-2,0,1.9011000000238418
8,R_2tbPVD1DV0HLe3w,31,f,1,1,2156.8000000715256,Physician-assisted suicide,Abolishing private prisons,1,-1,1,6,2,-0.6904761904761902,3,6,3,1.023809523809524,1,-3,4,-2,0,4,0,4,-4,-2,0,2.1568000000715255
8,R_2tbPVD1DV0HLe3w,32,j,2,0,4317.800000071526,Abortion rights,Mandatory training on sexual consent,1,1,3,5,3,1.023809523809524,1,7,3,-0.6904761904761902,3,1,-2,-2,2,2,2,2,-2,2,1,4.317800000071526
8,R_2tbPVD1DV0HLe3w,33,f,1,1,3523.3000000715256,Detention of migrant children,Expel students with white nationlist views,-1,-1,2,6,2,0.16666666666666682,3,6,3,1.023809523809524,-2,-3,1,-1,0,1,0,1,-1,-1,0,3.5233000000715258
8,R_2tbPVD1DV0HLe3w,34,j,2,0,1445.2000000476837,Legalization of marijuana,Affirmative action,1,1,-1,5,3,-2.4047619047619047,3,7,3,1.023809523809524,-1,3,4,4,2,4,2,-4,4,-4,1,1.4452000000476837
8,R_2tbPVD1DV0HLe3w,35,f,1,1,2106.4000000953674,Mask mandates,Abortion rights,1,-1,3,7,3,1.023809523809524,3,5,3,1.023809523809524,3,-3,6,0,2,6,2,6,-6,0,0,2.1064000000953675
8,R_2tbPVD1DV0HLe3w,36,f,1,1,2224.7000000476837,Student worker unionization,Expel students with white nationlist views,-1,1,2,5,4,0.16666666666666682,3,6,3,1.023809523809524,-2,3,-5,-1,-1,5,1,-5,5,-1,0,2.2247000000476835
8,R_2tbPVD1DV0HLe3w,37,j,2,0,2980.399999976158,Mask mandates,On campus concealed carry,1,-1,3,7,3,1.023809523809524,0,5,3,-1.5476190476190474,3,-0,-3,-3,-2,3,2,3,-3,3,1,2.980399999976158
8,R_2tbPVD1DV0HLe3w,38,j,2,0,1433.2000000476837,Gun-free campus police,Abortion rights,-1,-1,1,7,2,-0.6904761904761902,3,5,3,1.023809523809524,-1,-3,-2,2,-2,2,2,2,-2,-2,1,1.4332000000476837
8,R_2tbPVD1DV0HLe3w,39,f,1,1,1651.8000000715256,Remove public Confederate memorials,Expel students with white nationlist views,1,-1,2,6,2,0.16666666666666682,3,6,3,1.023809523809524,2,-3,5,-1,0,5,0,5,-5,-1,0,1.6518000000715256
8,R_2tbPVD1DV0HLe3w,40,j,2,0,2083.5,Student worker unionization,Affirmative action,-1,1,2,5,4,0.16666666666666682,3,7,3,1.023809523809524,-2,3,5,1,2,5,2,-5,5,-1,1,2.0835
8,R_2tbPVD1DV0HLe3w,41,f,1,1,1614.2999999523163,Detention of migrant children,Safe injection locations,1,1,2,6,2,0.16666666666666682,3,6,3,1.023809523809524,2,3,-1,-1,0,1,0,-1,1,-1,0,1.6142999999523162
8,R_2tbPVD1DV0HLe3w,42,f,1,1,2154.9000000953674,Expel students with white nationlist views,Ban on research with animals,1,-1,3,6,3,1.023809523809524,3,5,3,1.023809523809524,3,-3,6,0,1,6,1,6,-6,0,0,2.1549000000953673
8,R_2tbPVD1DV0HLe3w,43,j,2,0,2398.2999999523163,Remove Christopher Columbus statues,Defund Planned Parenthood,-1,-1,1,5,2,-0.6904761904761902,3,6,3,1.023809523809524,-1,-3,-2,2,1,2,1,2,-2,-2,1,2.3982999999523162
8,R_2tbPVD1DV0HLe3w,44,f,1,1,1902.3999999761581,Affirmative action,Mandatory drug tests for welfare recipients,1,1,3,7,3,1.023809523809524,2,6,2,0.16666666666666682,3,2,1,1,1,1,1,1,-1,1,0,1.902399999976158
8,R_2tbPVD1DV0HLe3w,45,j,2,0,1112.3000000715256,Gun-free campus police,"Boycott, Divest, and Sanction Israel",-1,1,1,7,2,-0.6904761904761902,3,5,3,1.023809523809524,-1,3,4,2,-2,4,2,-4,4,-2,1,1.1123000000715255
8,R_2tbPVD1DV0HLe3w,46,f,1,1,1867.5,"Boycott, Divest, and Sanction Israel","Boycott, Divest, and Sanction Israel",1,-1,3,5,3,1.023809523809524,3,5,3,1.023809523809524,3,-3,6,0,0,6,0,6,-6,0,0,1.8675
8,R_2tbPVD1DV0HLe3w,47,f,1,1,2032,Affirmative action,War on Drugs,1,-1,3,7,3,1.023809523809524,1,6,2,-0.6904761904761902,3,-1,4,2,1,4,1,4,-4,2,0,2.032
8,R_2tbPVD1DV0HLe3w,48,f,1,1,2354.7000000476837,Ban on research with animals,Affirmative action,-1,-1,3,5,3,1.023809523809524,3,7,3,1.023809523809524,-3,-3,0,0,-2,0,2,0,0,0,0,2.354700000047684
8,R_2tbPVD1DV0HLe3w,49,f,1,1,2112.5,Mandatory trigger warnings,Abortion rights,-1,1,2,5,2,0.16666666666666682,3,5,3,1.023809523809524,-2,3,-5,-1,0,5,0,-5,5,-1,0,2.1125
8,R_2tbPVD1DV0HLe3w,50,j,2,0,2046.6999999284744,Tuition increases,Ban on research with animals,1,1,0,6,3,-1.5476190476190474,3,5,3,1.023809523809524,0,3,3,3,-1,3,1,-3,3,-3,1,2.0466999999284745
8,R_2tbPVD1DV0HLe3w,51,f,1,1,1513.2000000476837,Mask mandates,Expel students with white nationlist views,1,-1,3,7,3,1.023809523809524,3,6,3,1.023809523809524,3,-3,6,0,1,6,1,6,-6,0,0,1.5132000000476837
8,R_2tbPVD1DV0HLe3w,52,f,1,1,1372.3000000715256,Mandatory training on sexual consent,"Boycott, Divest, and Sanction Israel",1,-1,1,7,3,-0.6904761904761902,3,5,3,1.023809523809524,1,-3,4,-2,2,4,2,4,-4,-2,0,1.3723000000715255
8,R_2tbPVD1DV0HLe3w,53,j,2,0,2055.100000023842,Climate change legislation,"Boycott, Divest, and Sanction Israel",-1,1,3,6,3,1.023809523809524,3,5,3,1.023809523809524,-3,3,6,0,-1,6,1,-6,6,0,1,2.0551000000238417
8,R_2tbPVD1DV0HLe3w,54,f,1,1,1859.5999999046326,Raise the minimum wage,Safe injection locations,-1,1,2,4,4,0.16666666666666682,3,6,3,1.023809523809524,-2,3,-5,-1,-2,5,2,-5,5,-1,0,1.8595999999046327
8,R_2tbPVD1DV0HLe3w,55,j,2,0,1528.6000000238419,Mask mandates,Cuts to National Parks budget,1,1,3,7,3,1.023809523809524,2,7,2,0.16666666666666682,3,2,-1,-1,0,1,0,1,-1,1,1,1.5286000000238418
8,R_2tbPVD1DV0HLe3w,56,j,2,0,2047.7000000476837,Remove Christopher Columbus statues,Expel students with white nationlist views,1,1,1,5,2,-0.6904761904761902,3,6,3,1.023809523809524,1,3,2,2,1,2,1,-2,2,-2,1,2.047700000047684
8,R_2tbPVD1DV0HLe3w,57,f,1,1,1198,Dorms determined by gender identity,Affirmative action,1,-1,2,5,3,0.16666666666666682,3,7,3,1.023809523809524,2,-3,5,-1,-2,5,2,5,-5,-1,0,1.198
8,R_2tbPVD1DV0HLe3w,58,j,2,0,1904.3999999761581,Mandatory vaccinations,Ban on research with animals,-1,-1,2,7,2,0.16666666666666682,3,5,3,1.023809523809524,-2,-3,-1,1,-2,1,2,1,-1,-1,1,1.904399999976158
8,R_2tbPVD1DV0HLe3w,59,f,1,1,1869.3999999761581,Raise the minimum wage,Abortion rights,1,1,2,4,4,0.16666666666666682,3,5,3,1.023809523809524,2,3,-1,-1,-1,1,1,-1,1,-1,0,1.8693999999761581
8,R_2tbPVD1DV0HLe3w,60,f,1,1,2332.399999976158,Mask mandates,Defund the police,1,-1,3,7,3,1.023809523809524,2,7,2,0.16666666666666682,3,-2,5,1,0,5,0,5,-5,1,0,2.332399999976158
8,R_2tbPVD1DV0HLe3w,61,f,1,1,2123.5,Religious exemptions for discrimination laws,On campus concealed carry,-1,-1,3,5,3,1.023809523809524,0,5,3,-1.5476190476190474,-3,-0,-3,3,0,3,0,-3,3,3,0,2.1235
8,R_2tbPVD1DV0HLe3w,62,j,2,0,1952,Hardening schools/Arming teachers,Mandatory vaccinations,-1,-1,3,6,3,1.023809523809524,2,7,2,0.16666666666666682,-3,-2,1,-1,1,1,1,-1,1,1,1,1.952
8,R_2tbPVD1DV0HLe3w,63,j,2,0,2279.399999976158,Raise the minimum wage,Religious exemptions for discrimination laws,-1,1,2,4,4,0.16666666666666682,3,5,3,1.023809523809524,-2,3,5,1,1,5,1,-5,5,-1,1,2.279399999976158
8,R_2tbPVD1DV0HLe3w,64,j,2,0,1887.6000000238419,Mask mandates,Ban on research with animals,1,1,3,7,3,1.023809523809524,3,5,3,1.023809523809524,3,3,0,0,-2,0,2,0,0,0,1,1.8876000000238418
8,R_2tbPVD1DV0HLe3w,65,j,2,0,1874.7000000476837,Expel students with white nationlist views,Raise the minimum wage,-1,1,3,6,3,1.023809523809524,2,4,4,0.16666666666666682,-3,2,5,-1,-2,5,2,-5,5,1,1,1.8747000000476837
8,R_2tbPVD1DV0HLe3w,66,f,1,1,2186,Abortion rights,Tuition increases,-1,-1,3,5,3,1.023809523809524,0,6,3,-1.5476190476190474,-3,-0,-3,3,-1,3,1,-3,3,3,0,2.186
8,R_2tbPVD1DV0HLe3w,67,f,1,1,1247.5,Defund Planned Parenthood,Mandatory trigger warnings,1,1,3,6,3,1.023809523809524,2,5,2,0.16666666666666682,3,2,1,1,1,1,1,1,-1,1,0,1.2475
8,R_2tbPVD1DV0HLe3w,68,j,2,0,1315.5,Affirmative action,Religious exemptions for discrimination laws,-1,1,3,7,3,1.023809523809524,3,5,3,1.023809523809524,-3,3,6,0,-2,6,2,-6,6,0,1,1.3155
8,R_2tbPVD1DV0HLe3w,69,f,1,1,1248.6000000238419,Defund the police,Climate change legislation,-1,1,2,7,2,0.16666666666666682,3,6,3,1.023809523809524,-2,3,-5,-1,1,5,1,-5,5,-1,0,1.2486000000238417
8,R_2tbPVD1DV0HLe3w,70,j,2,0,1994,Religious exemptions for discrimination laws,Remove Christopher Columbus statues,1,-1,3,5,3,1.023809523809524,1,5,2,-0.6904761904761902,3,-1,-4,-2,0,4,0,4,-4,2,1,1.994
8,R_2tbPVD1DV0HLe3w,71,f,1,1,1728.5,Remove public Confederate memorials,"Boycott, Divest, and Sanction Israel",1,-1,2,6,2,0.16666666666666682,3,5,3,1.023809523809524,2,-3,5,-1,1,5,1,5,-5,-1,0,1.7285
8,R_2tbPVD1DV0HLe3w,72,j,2,0,1013.6000000238419,Gun-free campus police,Climate change legislation,-1,1,1,7,2,-0.6904761904761902,3,6,3,1.023809523809524,-1,3,4,2,-1,4,1,-4,4,-2,1,1.0136000000238419
8,R_2tbPVD1DV0HLe3w,73,f,1,1,1348.7000000476837,Student worker unionization,Ban on research with animals,-1,-1,2,5,4,0.16666666666666682,3,5,3,1.023809523809524,-2,-3,1,-1,0,1,0,1,-1,-1,0,1.3487000000476836
8,R_2tbPVD1DV0HLe3w,74,f,1,1,1100.7999999523163,Remove Christopher Columbus statues,Ban on research with animals,1,1,1,5,2,-0.6904761904761902,3,5,3,1.023809523809524,1,3,-2,-2,0,2,0,-2,2,-2,0,1.1007999999523164
8,R_2tbPVD1DV0HLe3w,75,j,2,0,1890.7999999523163,Mask mandates,Detention of migrant children,-1,-1,3,7,3,1.023809523809524,2,6,2,0.16666666666666682,-3,-2,1,-1,-1,1,1,-1,1,1,1,1.8907999999523162
8,R_2tbPVD1DV0HLe3w,76,f,1,1,1013.7000000476837,Religious exemptions for discrimination laws,Ban on ethnic Halloween costumes,1,1,3,5,3,1.023809523809524,2,6,2,0.16666666666666682,3,2,1,1,-1,1,1,1,-1,1,0,1.0137000000476837
8,R_2tbPVD1DV0HLe3w,77,j,2,0,1859.8999999761581,Abortion rights,Physician-assisted suicide,1,-1,3,5,3,1.023809523809524,1,6,2,-0.6904761904761902,3,-1,-4,-2,1,4,1,4,-4,2,1,1.859899999976158
8,R_2tbPVD1DV0HLe3w,78,j,2,0,1462.2000000476837,"Boycott, Divest, and Sanction Israel",Raise the minimum wage,-1,1,3,5,3,1.023809523809524,2,4,4,0.16666666666666682,-3,2,5,-1,-1,5,1,-5,5,1,1,1.4622000000476838
8,R_2tbPVD1DV0HLe3w,79,j,2,0,2130,Tuition increases,Mask mandates,1,1,0,6,3,-1.5476190476190474,3,7,3,1.023809523809524,0,3,3,3,1,3,1,-3,3,-3,1,2.13
8,R_2tbPVD1DV0HLe3w,80,j,2,0,3684.899999976158,Mask mandates,Mandatory vaccinations,-1,1,3,7,3,1.023809523809524,2,7,2,0.16666666666666682,-3,2,5,-1,0,5,0,-5,5,1,1,3.684899999976158
8,R_2tbPVD1DV0HLe3w,81,f,1,1,1742.8999999761581,Climate change legislation,Mandatory trigger warnings,-1,-1,3,6,3,1.023809523809524,2,5,2,0.16666666666666682,-3,-2,-1,1,1,1,1,-1,1,1,0,1.742899999976158
8,R_2tbPVD1DV0HLe3w,82,f,1,1,2333.5,Religious exemptions for discrimination laws,Abolishing fraternities,-1,-1,3,5,3,1.023809523809524,-1,5,3,-2.4047619047619047,-3,1,-4,4,0,4,0,-4,4,4,0,2.3335
8,R_2tbPVD1DV0HLe3w,83,j,2,0,1287.2000000476837,Religious exemptions for discrimination laws,Defund the police,1,-1,3,5,3,1.023809523809524,2,7,2,0.16666666666666682,3,-2,-5,-1,2,5,2,5,-5,1,1,1.2872000000476838
8,R_2tbPVD1DV0HLe3w,84,f,1,1,1938,Mandatory drug tests for welfare recipients,Expel students with white nationlist views,-1,1,2,6,2,0.16666666666666682,3,6,3,1.023809523809524,-2,3,-5,-1,0,5,0,-5,5,-1,0,1.938
8,R_2tbPVD1DV0HLe3w,85,j,2,0,1474,Increased Gun regulations,Abortion rights,-1,-1,1,5,3,-0.6904761904761902,3,5,3,1.023809523809524,-1,-3,-2,2,0,2,0,2,-2,-2,1,1.474
8,R_2tbPVD1DV0HLe3w,86,j,2,0,2305.1999999284744,On campus concealed carry,Defund Planned Parenthood,-1,-1,0,5,3,-1.5476190476190474,3,6,3,1.023809523809524,-0,-3,-3,3,1,3,1,3,-3,-3,1,2.3051999999284742
8,R_2tbPVD1DV0HLe3w,87,j,2,0,2432.2999999523163,Ban on research with animals,Safe injection locations,-1,-1,3,5,3,1.023809523809524,3,6,3,1.023809523809524,-3,-3,0,0,1,0,1,0,0,0,1,2.4322999999523165
8,R_2tbPVD1DV0HLe3w,88,f,1,1,2477.399999976158,Abolishing private prisons,Dorms determined by gender identity,-1,1,3,6,3,1.023809523809524,2,5,3,0.16666666666666682,-3,2,-5,1,1,5,1,-5,5,1,0,2.477399999976158
8,R_2tbPVD1DV0HLe3w,89,j,2,0,1655.2000000476837,Remove public Confederate memorials,"Boycott, Divest, and Sanction Israel",-1,-1,2,6,2,0.16666666666666682,3,5,3,1.023809523809524,-2,-3,-1,1,-1,1,1,1,-1,-1,1,1.6552000000476836
8,R_2tbPVD1DV0HLe3w,90,j,2,0,1821.8999999761581,Climate change legislation,Remove Christopher Columbus statues,1,-1,3,6,3,1.023809523809524,1,5,2,-0.6904761904761902,3,-1,-4,-2,-1,4,1,4,-4,2,1,1.821899999976158
8,R_2tbPVD1DV0HLe3w,91,j,2,0,2259.7000000476837,Affirmative action,Mask mandates,-1,1,3,7,3,1.023809523809524,3,7,3,1.023809523809524,-3,3,6,0,0,6,0,-6,6,0,1,2.2597000000476837
8,R_2tbPVD1DV0HLe3w,92,f,1,1,2262.9000000953674,Climate change legislation,Mask mandates,-1,-1,3,6,3,1.023809523809524,3,7,3,1.023809523809524,-3,-3,0,0,-1,0,1,0,0,0,0,2.2629000000953674
8,R_2tbPVD1DV0HLe3w,93,j,2,0,2201.8000000715256,Affirmative action,War on Drugs,1,1,3,7,3,1.023809523809524,1,6,2,-0.6904761904761902,3,1,-2,-2,-1,2,1,2,-2,2,1,2.2018000000715254
8,R_2tbPVD1DV0HLe3w,94,j,2,0,1866.7000000476837,War on Drugs,Hardening schools/Arming teachers,-1,-1,1,6,2,-0.6904761904761902,3,6,3,1.023809523809524,-1,-3,-2,2,0,2,0,2,-2,-2,1,1.8667000000476837
8,R_2tbPVD1DV0HLe3w,95,j,2,0,2435,Mandatory training on sexual consent,Affirmative action,1,1,1,7,3,-0.6904761904761902,3,7,3,1.023809523809524,1,3,2,2,0,2,0,-2,2,-2,1,2.435
8,R_2tbPVD1DV0HLe3w,96,j,2,0,3273.600000023842,Mandatory training on sexual consent,Defund Planned Parenthood,-1,-1,1,7,3,-0.6904761904761902,3,6,3,1.023809523809524,-1,-3,-2,2,-1,2,1,2,-2,-2,1,3.273600000023842
8,R_2tbPVD1DV0HLe3w,97,j,2,0,535.9000000953674,Defund Planned Parenthood,Mandatory training on sexual consent,1,1,3,6,3,1.023809523809524,1,7,3,-0.6904761904761902,3,1,-2,-2,1,2,1,2,-2,2,1,0.5359000000953674
8,R_2tbPVD1DV0HLe3w,98,f,1,1,4051.1999999284744,Defund the police,Hardening schools/Arming teachers,1,-1,2,7,2,0.16666666666666682,3,6,3,1.023809523809524,2,-3,5,-1,1,5,1,5,-5,-1,0,4.051199999928475
8,R_2tbPVD1DV0HLe3w,99,j,2,0,1601,Defund Planned Parenthood,Affirmative action,1,-1,3,6,3,1.023809523809524,3,7,3,1.023809523809524,3,-3,-6,0,1,6,1,6,-6,0,1,1.601
8,R_2tbPVD1DV0HLe3w,100,f,1,1,1694.3999999761581,Abolishing private prisons,Physician-assisted suicide,1,-1,3,6,3,1.023809523809524,1,6,2,-0.6904761904761902,3,-1,4,2,0,4,0,4,-4,2,0,1.694399999976158
7,R_2t56Fwl8ddfXWCS,1,j,2,0,1013.3000000119209,Hardening schools/Arming teachers,Dorms determined by gender identity,1,1,0,6,3,-1.5583874449479593,1,5,2,0.25973124082465976,0,1,1,1,-1,1,1,-1,1,-1,1,1.013300000011921
7,R_2t56Fwl8ddfXWCS,2,f,1,1,4797.300000011921,Defund Planned Parenthood,Increased Gun regulations,-1,-1,2,3,2,2.077849926597279,1,7,2,0.25973124082465976,-2,-1,-1,1,-4,1,4,-1,1,1,0,4.797300000011921
7,R_2t56Fwl8ddfXWCS,3,j,2,0,3366.100000023842,Affirmative action,Raise the minimum wage,1,1,1,6,1,0.25973124082465976,2,5,2,2.077849926597279,1,2,1,1,-1,1,1,-1,1,-1,1,3.3661000000238417
7,R_2t56Fwl8ddfXWCS,4,j,2,0,4611.699999988079,Raise the minimum wage,Defund Planned Parenthood,1,1,2,5,2,2.077849926597279,2,3,2,2.077849926597279,2,2,0,0,-2,0,2,0,0,0,1,4.611699999988079
7,R_2t56Fwl8ddfXWCS,5,j,2,0,4947.600000023842,Mask mandates,Increased Gun regulations,-1,-1,-1,4,2,-3.376506130720579,1,7,2,0.25973124082465976,1,-1,-2,2,3,2,3,2,-2,-2,1,4.947600000023842
7,R_2t56Fwl8ddfXWCS,6,f,1,1,3308.5,Defund Planned Parenthood,Mask mandates,-1,-1,2,3,2,2.077849926597279,-1,4,2,-3.376506130720579,-2,1,-3,3,-1,3,1,-3,3,3,0,3.3085
7,R_2t56Fwl8ddfXWCS,7,j,2,0,4730,Physician-assisted suicide,Defund Planned Parenthood,-1,-1,0,5,2,-1.5583874449479593,2,3,2,2.077849926597279,-0,-2,-2,2,-2,2,2,2,-2,-2,1,4.73
7,R_2t56Fwl8ddfXWCS,8,j,2,0,4038.400000035763,Increased Gun regulations,Hardening schools/Arming teachers,-1,-1,1,7,2,0.25973124082465976,0,6,3,-1.5583874449479593,-1,-0,1,-1,-1,1,1,-1,1,1,1,4.038400000035763
7,R_2t56Fwl8ddfXWCS,9,j,2,0,3948.2999999523163,Affirmative action,Defund Planned Parenthood,1,1,1,6,1,0.25973124082465976,2,3,2,2.077849926597279,1,2,1,1,-3,1,3,-1,1,-1,1,3.948299999952316
7,R_2t56Fwl8ddfXWCS,10,f,1,1,4952.800000011921,Detention of migrant children,Defund Planned Parenthood,1,-1,1,5,2,0.25973124082465976,2,3,2,2.077849926597279,1,-2,3,-1,2,3,2,3,-3,-1,0,4.952800000011921
7,R_2t56Fwl8ddfXWCS,11,j,2,0,6821.399999976158,Hardening schools/Arming teachers,Bathrooms restricted based on biological sex,1,-1,0,6,3,-1.5583874449479593,1,6,1,0.25973124082465976,0,-1,-1,1,0,1,0,1,-1,-1,1,6.821399999976158
7,R_2t56Fwl8ddfXWCS,12,j,2,0,4564.800000011921,"Boycott, Divest, and Sanction Israel",Raise the minimum wage,1,1,1,5,2,0.25973124082465976,2,5,2,2.077849926597279,1,2,1,1,0,1,0,-1,1,-1,1,4.564800000011921
7,R_2t56Fwl8ddfXWCS,13,j,2,0,4031.899999976158,Increased Gun regulations,Defund the police,-1,1,1,7,2,0.25973124082465976,1,5,2,0.25973124082465976,-1,1,2,0,-2,2,2,-2,2,0,1,4.031899999976158
7,R_2t56Fwl8ddfXWCS,14,f,1,1,3132,Increased Gun regulations,Lift COVID lockdowns,1,1,1,7,2,0.25973124082465976,1,6,1,0.25973124082465976,1,1,0,0,1,0,1,0,0,0,0,3.132
7,R_2t56Fwl8ddfXWCS,15,j,2,0,2384.800000011921,Raise the minimum wage,Defund Planned Parenthood,-1,-1,2,5,2,2.077849926597279,2,3,2,2.077849926597279,-2,-2,0,0,-2,0,2,0,0,0,1,2.384800000011921
7,R_2t56Fwl8ddfXWCS,16,j,2,0,3989.899999976158,Lift COVID lockdowns,Student worker unionization,1,1,1,6,1,0.25973124082465976,1,5,2,0.25973124082465976,1,1,0,0,-1,0,1,0,0,0,1,3.989899999976158
7,R_2t56Fwl8ddfXWCS,17,j,2,0,8200.399999976158,Mask mandates,Raise the minimum wage,1,-1,-1,4,2,-3.376506130720579,2,5,2,2.077849926597279,-1,-2,-1,3,1,1,1,1,-1,-3,1,8.200399999976158
7,R_2t56Fwl8ddfXWCS,18,j,2,0,2310.800000011921,Defund Planned Parenthood,Raise the minimum wage,-1,1,2,3,2,2.077849926597279,2,5,2,2.077849926597279,-2,2,4,0,2,4,2,-4,4,0,1,2.310800000011921
7,R_2t56Fwl8ddfXWCS,19,f,1,1,4338.599999964237,Defund Planned Parenthood,Mask mandates,1,-1,2,3,2,2.077849926597279,-1,4,2,-3.376506130720579,2,1,1,3,-1,1,1,1,-1,3,0,4.338599999964237
7,R_2t56Fwl8ddfXWCS,20,j,2,0,2507.099999964237,Raise the minimum wage,Raise the minimum wage,-1,1,2,5,2,2.077849926597279,2,5,2,2.077849926597279,-2,2,4,0,0,4,0,-4,4,0,1,2.5070999999642374
7,R_2t56Fwl8ddfXWCS,21,j,2,0,8245.800000011921,Hardening schools/Arming teachers,U.S. drone strikes in Afghanistan,1,-1,0,6,3,-1.5583874449479593,1,5,2,0.25973124082465976,0,-1,-1,1,-1,1,1,1,-1,-1,1,8.24580000001192
7,R_2t56Fwl8ddfXWCS,22,f,1,1,7165.199999988079,Raise the minimum wage,Bathrooms restricted based on biological sex,1,-1,2,5,2,2.077849926597279,1,6,1,0.25973124082465976,2,-1,3,1,-1,3,1,3,-3,1,0,7.165199999988079
7,R_2t56Fwl8ddfXWCS,23,j,2,0,4390.5,Raise the minimum wage,"Boycott, Divest, and Sanction Israel",1,-1,2,5,2,2.077849926597279,1,5,2,0.25973124082465976,2,-1,-3,-1,0,3,0,3,-3,1,1,4.3905
7,R_2t56Fwl8ddfXWCS,24,f,1,1,4985,Defund Planned Parenthood,Increased Gun regulations,-1,1,2,3,2,2.077849926597279,1,7,2,0.25973124082465976,-2,1,-3,1,-4,3,4,-3,3,1,0,4.985
7,R_2t56Fwl8ddfXWCS,25,f,1,1,3643.100000023842,Gun-free campus police,Increased Gun regulations,-1,1,0,5,3,-1.5583874449479593,1,7,2,0.25973124082465976,-0,1,-1,-1,-2,1,2,-1,1,-1,0,3.643100000023842
7,R_2t56Fwl8ddfXWCS,26,f,1,1,4338.600000023842,Affirmative action,Raise the minimum wage,1,-1,1,6,1,0.25973124082465976,2,5,2,2.077849926597279,1,-2,3,-1,1,3,1,3,-3,-1,0,4.338600000023842
7,R_2t56Fwl8ddfXWCS,27,j,2,0,7575.099999964237,Affirmative action,Affirmative action,1,-1,1,6,1,0.25973124082465976,1,6,1,0.25973124082465976,1,-1,-2,0,0,2,0,2,-2,0,1,7.575099999964237
7,R_2t56Fwl8ddfXWCS,28,f,1,1,3504,Increased Gun regulations,Raise the minimum wage,-1,-1,1,7,2,0.25973124082465976,2,5,2,2.077849926597279,-1,-2,1,-1,2,1,2,1,-1,-1,0,3.504
7,R_2t56Fwl8ddfXWCS,29,f,1,1,5572.900000035763,Raise the minimum wage,Increased Gun regulations,-1,1,2,5,2,2.077849926597279,1,7,2,0.25973124082465976,-2,1,-3,1,-2,3,2,-3,3,1,0,5.572900000035763
7,R_2t56Fwl8ddfXWCS,30,j,2,0,5168.400000035763,Increased Gun regulations,Raise the minimum wage,-1,1,1,7,2,0.25973124082465976,2,5,2,2.077849926597279,-1,2,3,1,-2,3,2,-3,3,-1,1,5.168400000035763
7,R_2t56Fwl8ddfXWCS,31,j,2,0,6096.199999988079,Increased Gun regulations,Raise the minimum wage,1,1,1,7,2,0.25973124082465976,2,5,2,2.077849926597279,1,2,1,1,-2,1,2,-1,1,-1,1,6.096199999988079
7,R_2t56Fwl8ddfXWCS,32,j,2,0,13460.699999988079,Increased Gun regulations,Mask mandates,1,1,1,7,2,0.25973124082465976,-1,4,2,-3.376506130720579,1,-1,-2,-2,-3,2,3,2,-2,2,1,13.46069999998808
7,R_2t56Fwl8ddfXWCS,33,f,1,1,3964.800000011921,Mask mandates,Raise the minimum wage,-1,1,-1,4,2,-3.376506130720579,2,5,2,2.077849926597279,1,2,-1,-3,-1,1,1,-1,1,-3,0,3.964800000011921
7,R_2t56Fwl8ddfXWCS,34,j,2,0,3170.699999988079,Mask mandates,Mask mandates,1,-1,-1,4,2,-3.376506130720579,-1,4,2,-3.376506130720579,-1,1,2,0,0,2,0,-2,2,0,1,3.170699999988079
7,R_2t56Fwl8ddfXWCS,35,j,2,0,5309.400000035763,Defund Planned Parenthood,Hardening schools/Arming teachers,1,1,2,3,2,2.077849926597279,0,6,3,-1.5583874449479593,2,0,-2,-2,3,2,3,2,-2,2,1,5.309400000035763
7,R_2t56Fwl8ddfXWCS,36,j,2,0,2706.600000023842,Defund Planned Parenthood,Increased Gun regulations,1,1,2,3,2,2.077849926597279,1,7,2,0.25973124082465976,2,1,-1,-1,4,1,4,1,-1,1,1,2.7066000000238417
7,R_2t56Fwl8ddfXWCS,37,j,2,0,2634.399999976158,Affirmative action,Increased Gun regulations,-1,1,1,6,1,0.25973124082465976,1,7,2,0.25973124082465976,-1,1,2,0,1,2,1,-2,2,0,1,2.634399999976158
7,R_2t56Fwl8ddfXWCS,38,j,2,0,3844.400000035763,Raise the minimum wage,Expel students with white nationlist views,-1,1,2,5,2,2.077849926597279,1,5,2,0.25973124082465976,-2,1,3,-1,0,3,0,-3,3,1,1,3.8444000000357628
7,R_2t56Fwl8ddfXWCS,39,j,2,0,7370.800000011921,Lift COVID lockdowns,Abortion rights,1,-1,1,6,1,0.25973124082465976,1,5,2,0.25973124082465976,1,-1,-2,0,-1,2,1,2,-2,0,1,7.370800000011921
7,R_2t56Fwl8ddfXWCS,40,f,1,1,5540.800000011921,Affirmative action,Raise the minimum wage,1,1,1,6,1,0.25973124082465976,2,5,2,2.077849926597279,1,2,-1,-1,1,1,1,-1,1,-1,0,5.540800000011921
7,R_2t56Fwl8ddfXWCS,41,j,2,0,3060.899999976158,Raise the minimum wage,Hardening schools/Arming teachers,-1,1,2,5,2,2.077849926597279,0,6,3,-1.5583874449479593,-2,0,2,-2,1,2,1,-2,2,2,1,3.0608999999761584
7,R_2t56Fwl8ddfXWCS,42,j,2,0,6549.099999964237,Defund Planned Parenthood,Lift COVID lockdowns,-1,1,2,3,2,2.077849926597279,1,6,1,0.25973124082465976,-2,1,3,-1,3,3,3,-3,3,1,1,6.549099999964238
7,R_2t56Fwl8ddfXWCS,43,j,2,0,3601.699999988079,Remove public Confederate memorials,Lift COVID lockdowns,-1,1,0,5,3,-1.5583874449479593,1,6,1,0.25973124082465976,-0,1,1,1,1,1,1,-1,1,-1,1,3.601699999988079
7,R_2t56Fwl8ddfXWCS,44,f,1,1,5531.5,Mask mandates,Defund Planned Parenthood,1,1,-1,4,2,-3.376506130720579,2,3,2,2.077849926597279,-1,2,-3,-3,1,3,1,-3,3,-3,0,5.5315
7,R_2t56Fwl8ddfXWCS,45,f,1,1,7845.900000035763,Bathrooms restricted based on biological sex,Hardening schools/Arming teachers,1,-1,1,6,1,0.25973124082465976,0,6,3,-1.5583874449479593,1,-0,1,1,0,1,0,1,-1,1,0,7.845900000035763
7,R_2t56Fwl8ddfXWCS,46,j,2,0,4536.800000011921,Ban on ethnic Halloween costumes,Increased Gun regulations,-1,1,1,5,2,0.25973124082465976,1,7,2,0.25973124082465976,-1,1,2,0,2,2,2,-2,2,0,1,4.536800000011921
7,R_2t56Fwl8ddfXWCS,47,j,2,0,2340.199999988079,Defund Planned Parenthood,Mask mandates,-1,1,2,3,2,2.077849926597279,-1,4,2,-3.376506130720579,-2,-1,1,-3,1,1,1,-1,1,3,1,2.340199999988079
7,R_2t56Fwl8ddfXWCS,48,f,1,1,3686.7999999523163,Increased Gun regulations,Raise the minimum wage,-1,1,1,7,2,0.25973124082465976,2,5,2,2.077849926597279,-1,2,-3,-1,2,3,2,-3,3,-1,0,3.686799999952316
7,R_2t56Fwl8ddfXWCS,49,f,1,1,2847.300000011921,Lift COVID lockdowns,Defund Planned Parenthood,-1,-1,1,6,1,0.25973124082465976,2,3,2,2.077849926597279,-1,-2,1,-1,3,1,3,1,-1,-1,0,2.847300000011921
7,R_2t56Fwl8ddfXWCS,50,j,2,0,3601.199999988079,Affirmative action,Mask mandates,-1,1,1,6,1,0.25973124082465976,-1,4,2,-3.376506130720579,-1,-1,0,-2,-2,0,2,0,0,2,1,3.6011999999880793
7,R_2t56Fwl8ddfXWCS,51,f,1,1,2670.899999976158,Bathrooms restricted based on biological sex,Raise the minimum wage,-1,-1,1,6,1,0.25973124082465976,2,5,2,2.077849926597279,-1,-2,1,-1,1,1,1,1,-1,-1,0,2.6708999999761582
7,R_2t56Fwl8ddfXWCS,52,f,1,1,3818.2000000476837,Increased Gun regulations,Mask mandates,1,-1,1,7,2,0.25973124082465976,-1,4,2,-3.376506130720579,1,1,0,2,3,0,3,0,0,2,0,3.8182000000476837
7,R_2t56Fwl8ddfXWCS,53,j,2,0,9603.600000023842,Raise the minimum wage,Ban on ethnic Halloween costumes,-1,-1,2,5,2,2.077849926597279,1,5,2,0.25973124082465976,-2,-1,1,-1,0,1,0,-1,1,1,1,9.603600000023842
7,R_2t56Fwl8ddfXWCS,54,f,1,1,7574,Remove police from schools,Defund Planned Parenthood,-1,-1,1,5,2,0.25973124082465976,2,3,2,2.077849926597279,-1,-2,1,-1,2,1,2,1,-1,-1,0,7.574
7,R_2t56Fwl8ddfXWCS,55,f,1,1,10666.800000011921,Defund Planned Parenthood,Recognize Jerusalem as capital of Israel,1,-1,2,3,2,2.077849926597279,1,5,2,0.25973124082465976,2,-1,3,1,-2,3,2,3,-3,1,0,10.666800000011921
7,R_2t56Fwl8ddfXWCS,56,j,2,0,2432.5,Raise the minimum wage,Mask mandates,-1,-1,2,5,2,2.077849926597279,-1,4,2,-3.376506130720579,-2,1,3,-3,-1,3,1,-3,3,3,1,2.4325
7,R_2t56Fwl8ddfXWCS,57,f,1,1,2095.199999988079,Gun-free campus police,Mask mandates,1,1,0,5,3,-1.5583874449479593,-1,4,2,-3.376506130720579,0,-1,1,1,1,1,1,1,-1,1,0,2.095199999988079
7,R_2t56Fwl8ddfXWCS,58,j,2,0,2777.2999999523163,Raise the minimum wage,Hardening schools/Arming teachers,1,-1,2,5,2,2.077849926597279,0,6,3,-1.5583874449479593,2,-0,-2,-2,1,2,1,2,-2,2,1,2.7772999999523162
7,R_2t56Fwl8ddfXWCS,59,j,2,0,6384.5,Raise the minimum wage,Bathrooms restricted based on biological sex,1,-1,2,5,2,2.077849926597279,1,6,1,0.25973124082465976,2,-1,-3,-1,1,3,1,3,-3,1,1,6.3845
7,R_2t56Fwl8ddfXWCS,60,f,1,1,9920.699999988079,Gun-free campus police,Defund Planned Parenthood,-1,1,0,5,3,-1.5583874449479593,2,3,2,2.077849926597279,-0,2,-2,-2,2,2,2,-2,2,-2,0,9.920699999988079
7,R_2t56Fwl8ddfXWCS,61,j,2,0,6679.800000011921,Remove police from schools,Ban on research with animals,1,-1,1,5,2,0.25973124082465976,0,5,2,-1.5583874449479593,1,-0,-1,-1,0,1,0,1,-1,1,1,6.679800000011921
7,R_2t56Fwl8ddfXWCS,62,j,2,0,3828.600000023842,Legalization of marijuana,Mask mandates,-1,1,1,5,2,0.25973124082465976,-1,4,2,-3.376506130720579,-1,-1,0,-2,-1,0,1,0,0,2,1,3.828600000023842
7,R_2t56Fwl8ddfXWCS,63,f,1,1,2045.800000011921,Raise the minimum wage,Defund Planned Parenthood,1,-1,2,5,2,2.077849926597279,2,3,2,2.077849926597279,2,-2,4,0,2,4,2,4,-4,0,0,2.045800000011921
7,R_2t56Fwl8ddfXWCS,64,f,1,1,2149.600000023842,Defund Planned Parenthood,Raise the minimum wage,1,-1,2,3,2,2.077849926597279,2,5,2,2.077849926597279,2,-2,4,0,-2,4,2,4,-4,0,0,2.1496000000238418
7,R_2t56Fwl8ddfXWCS,65,j,2,0,3071.399999976158,Increased Gun regulations,Ban on research with animals,-1,1,1,7,2,0.25973124082465976,0,5,2,-1.5583874449479593,-1,0,1,-1,-2,1,2,-1,1,1,1,3.0713999999761583
7,R_2t56Fwl8ddfXWCS,66,f,1,1,3494.5,Hardening schools/Arming teachers,Mask mandates,-1,-1,0,6,3,-1.5583874449479593,-1,4,2,-3.376506130720579,-0,1,-1,1,2,1,2,-1,1,1,0,3.4945
7,R_2t56Fwl8ddfXWCS,67,f,1,1,2203.300000011921,Raise the minimum wage,Defund Planned Parenthood,1,1,2,5,2,2.077849926597279,2,3,2,2.077849926597279,2,2,0,0,2,0,2,0,0,0,0,2.2033000000119207
7,R_2t56Fwl8ddfXWCS,68,j,2,0,5186.199999988079,Defund Planned Parenthood,Affirmative action,1,-1,2,3,2,2.077849926597279,1,6,1,0.25973124082465976,2,-1,-3,-1,3,3,3,3,-3,1,1,5.186199999988079
7,R_2t56Fwl8ddfXWCS,69,f,1,1,4033.300000011921,Increased Gun regulations,University Campus should be a Sanctuary,1,1,1,7,2,0.25973124082465976,1,5,2,0.25973124082465976,1,1,0,0,2,0,2,0,0,0,0,4.033300000011921
7,R_2t56Fwl8ddfXWCS,70,j,2,0,2704.2000000476837,"Boycott, Divest, and Sanction Israel",Climate change legislation,-1,1,1,5,2,0.25973124082465976,1,5,2,0.25973124082465976,-1,1,2,0,0,2,0,-2,2,0,1,2.704200000047684
7,R_2t56Fwl8ddfXWCS,71,j,2,0,1936.9000000357628,Hardening schools/Arming teachers,Increased Gun regulations,-1,1,0,6,3,-1.5583874449479593,1,7,2,0.25973124082465976,-0,1,1,1,1,1,1,-1,1,-1,1,1.9369000000357628
7,R_2t56Fwl8ddfXWCS,72,j,2,0,3310.699999988079,Defund the police,Mask mandates,1,1,1,5,2,0.25973124082465976,-1,4,2,-3.376506130720579,1,-1,-2,-2,-1,2,1,2,-2,2,1,3.310699999988079
7,R_2t56Fwl8ddfXWCS,73,f,1,1,2864.100000023842,Hardening schools/Arming teachers,Gun-free campus police,1,-1,0,6,3,-1.5583874449479593,0,5,3,-1.5583874449479593,0,-0,0,0,1,0,1,0,-0,0,0,2.864100000023842
7,R_2t56Fwl8ddfXWCS,74,j,2,0,3429.5,Increased Gun regulations,Affirmative action,-1,-1,1,7,2,0.25973124082465976,1,6,1,0.25973124082465976,-1,-1,0,0,-1,0,1,0,0,0,1,3.4295
7,R_2t56Fwl8ddfXWCS,75,j,2,0,2245.800000011921,Allow alt-right speakers on campus,Increased Gun regulations,-1,-1,1,5,2,0.25973124082465976,1,7,2,0.25973124082465976,-1,-1,0,0,2,0,2,0,0,0,1,2.245800000011921
7,R_2t56Fwl8ddfXWCS,76,j,2,0,2382.800000011921,Defund Planned Parenthood,Defund Planned Parenthood,1,-1,2,3,2,2.077849926597279,2,3,2,2.077849926597279,2,-2,-4,0,0,4,0,4,-4,0,1,2.3828000000119207
7,R_2t56Fwl8ddfXWCS,77,j,2,0,5548.900000035763,Lift COVID lockdowns,Student worker unionization,-1,-1,1,6,1,0.25973124082465976,1,5,2,0.25973124082465976,-1,-1,0,0,-1,0,1,0,0,0,1,5.548900000035763
7,R_2t56Fwl8ddfXWCS,78,j,2,0,3078.2999999523163,University Campus should be a Sanctuary,Mask mandates,-1,-1,1,5,2,0.25973124082465976,-1,4,2,-3.376506130720579,-1,1,2,-2,-1,2,1,-2,2,2,1,3.0782999999523164
7,R_2t56Fwl8ddfXWCS,79,j,2,0,1581.3999999761581,Mask mandates,Lift COVID lockdowns,-1,1,-1,4,2,-3.376506130720579,1,6,1,0.25973124082465976,1,1,0,2,2,0,2,0,0,-2,1,1.581399999976158
7,R_2t56Fwl8ddfXWCS,80,f,1,1,5875.799999952316,Remove public Confederate memorials,Raise the minimum wage,-1,-1,0,5,3,-1.5583874449479593,2,5,2,2.077849926597279,-0,-2,2,-2,0,2,0,2,-2,-2,0,5.875799999952316
7,R_2t56Fwl8ddfXWCS,81,j,2,0,2497.899999976158,Mask mandates,Bathrooms restricted based on biological sex,-1,-1,-1,4,2,-3.376506130720579,1,6,1,0.25973124082465976,1,-1,-2,2,2,2,2,2,-2,-2,1,2.497899999976158
7,R_2t56Fwl8ddfXWCS,82,f,1,1,1621.1000000238419,Mandatory vaccinations,Mask mandates,1,-1,1,5,2,0.25973124082465976,-1,4,2,-3.376506130720579,1,1,0,2,1,0,1,0,0,2,0,1.6211000000238418
7,R_2t56Fwl8ddfXWCS,83,f,1,1,1701.8999999761581,Defund the police,Lift COVID lockdowns,1,-1,1,5,2,0.25973124082465976,1,6,1,0.25973124082465976,1,-1,2,0,-1,2,1,2,-2,0,0,1.7018999999761582
7,R_2t56Fwl8ddfXWCS,84,j,2,0,1780.0999999642372,Mask mandates,Raise the minimum wage,1,1,-1,4,2,-3.376506130720579,2,5,2,2.077849926597279,-1,2,3,3,1,3,1,-3,3,-3,1,1.7800999999642373
7,R_2t56Fwl8ddfXWCS,85,f,1,1,2094.699999988079,Bathrooms restricted based on biological sex,Mask mandates,1,1,1,6,1,0.25973124082465976,-1,4,2,-3.376506130720579,1,-1,2,2,2,2,2,2,-2,2,0,2.094699999988079
7,R_2t56Fwl8ddfXWCS,86,f,1,1,1673.800000011921,Remove public Confederate memorials,Mask mandates,1,-1,0,5,3,-1.5583874449479593,-1,4,2,-3.376506130720579,0,1,-1,1,1,1,1,-1,1,1,0,1.6738000000119209
7,R_2t56Fwl8ddfXWCS,87,f,1,1,2046.1000000238419,Mask mandates,Hardening schools/Arming teachers,1,-1,-1,4,2,-3.376506130720579,0,6,3,-1.5583874449479593,-1,-0,-1,-1,-2,1,2,-1,1,-1,0,2.046100000023842
7,R_2t56Fwl8ddfXWCS,88,f,1,1,3082.5,Raise the minimum wage,Tuition increases,1,1,2,5,2,2.077849926597279,1,5,2,0.25973124082465976,2,1,1,1,0,1,0,1,-1,1,0,3.0825
7,R_2t56Fwl8ddfXWCS,89,f,1,1,1561.800000011921,Raise the minimum wage,Expel students with white nationlist views,1,-1,2,5,2,2.077849926597279,1,5,2,0.25973124082465976,2,-1,3,1,0,3,0,3,-3,1,0,1.561800000011921
7,R_2t56Fwl8ddfXWCS,90,f,1,1,2086.199999988079,Affirmative action,Increased Gun regulations,1,-1,1,6,1,0.25973124082465976,1,7,2,0.25973124082465976,1,-1,2,0,-1,2,1,2,-2,0,0,2.086199999988079
7,R_2t56Fwl8ddfXWCS,91,j,2,0,1858.699999988079,Defund Planned Parenthood,On campus concealed carry,1,1,2,3,2,2.077849926597279,1,5,2,0.25973124082465976,2,1,-1,-1,2,1,2,1,-1,1,1,1.858699999988079
7,R_2t56Fwl8ddfXWCS,93,f,1,1,2865.600000023842,Hardening schools/Arming teachers,Defund Planned Parenthood,1,-1,0,6,3,-1.5583874449479593,2,3,2,2.077849926597279,0,-2,2,-2,3,2,3,2,-2,-2,0,2.865600000023842
7,R_2t56Fwl8ddfXWCS,94,f,1,1,4361.899999976158,Ban on research with animals,Raise the minimum wage,1,1,0,5,2,-1.5583874449479593,2,5,2,2.077849926597279,0,2,-2,-2,0,2,0,-2,2,-2,0,4.361899999976158
7,R_2t56Fwl8ddfXWCS,95,f,1,1,4150.599999964237,Bathrooms restricted based on biological sex,Remove public Confederate memorials,-1,-1,1,6,1,0.25973124082465976,0,5,3,-1.5583874449479593,-1,-0,-1,1,1,1,1,-1,1,1,0,4.150599999964237
7,R_2t56Fwl8ddfXWCS,96,j,2,0,52765.40000003576,Increased Gun regulations,Defund Planned Parenthood,-1,1,1,7,2,0.25973124082465976,2,3,2,2.077849926597279,-1,2,3,1,-4,3,4,-3,3,-1,1,52.76540000003576
7,R_2t56Fwl8ddfXWCS,97,j,2,0,2240.600000023842,Legalization of marijuana,Ban on research with animals,-1,1,1,5,2,0.25973124082465976,0,5,2,-1.5583874449479593,-1,0,1,-1,0,1,0,-1,1,1,1,2.240600000023842
7,R_2t56Fwl8ddfXWCS,98,f,1,1,6472.699999988079,Raise the minimum wage,Raise the minimum wage,-1,1,2,5,2,2.077849926597279,2,5,2,2.077849926597279,-2,2,-4,0,0,4,0,-4,4,0,0,6.472699999988079
7,R_2t56Fwl8ddfXWCS,99,j,2,0,3193.300000011921,Increased Gun regulations,Mask mandates,-1,1,1,7,2,0.25973124082465976,-1,4,2,-3.376506130720579,-1,-1,0,-2,-3,0,3,0,0,2,1,3.193300000011921
7,R_2t56Fwl8ddfXWCS,100,j,2,0,1879.300000011921,Raise the minimum wage,Increased Gun regulations,1,1,2,5,2,2.077849926597279,1,7,2,0.25973124082465976,2,1,-1,-1,2,1,2,1,-1,1,1,1.8793000000119209
2,R_1ir3HZuypop5xQB,1,f,1,1,10683.900000095367,University Campus should be a Sanctuary,Safe injection locations,-1,-1,2,7,2,1.5168173299110996,2,4,1,1.5168173299110996,-2,-2,0,0,3,0,3,0,0,0,0,10.683900000095367
2,R_1ir3HZuypop5xQB,2,j,2,0,1268.6999999284744,Abolishing fraternities,War on Drugs,1,-1,2,6,2,1.5168173299110996,2,5,2,1.5168173299110996,2,-2,-4,0,-1,4,1,4,-4,0,1,1.2686999999284745
2,R_1ir3HZuypop5xQB,3,j,2,0,880.1999999284744,Safe injection locations,Gun-free campus police,1,-1,2,4,1,1.5168173299110996,1,5,2,0.48652631336771124,2,-1,-3,-1,1,3,1,3,-3,1,1,0.8801999999284744
2,R_1ir3HZuypop5xQB,4,f,1,1,600.3999999761581,Hardening schools/Arming teachers,Abolishing fraternities,1,-1,0,4,3,-0.543764703175677,2,6,2,1.5168173299110996,0,-2,2,-2,-2,2,2,2,-2,-2,0,0.6003999999761581
2,R_1ir3HZuypop5xQB,5,f,1,1,1110.5,Safe injection locations,Mandatory drug tests for welfare recipients,-1,1,2,4,1,1.5168173299110996,1,2,1,0.48652631336771124,-2,1,-3,1,2,3,2,-3,3,1,0,1.1105
2,R_1ir3HZuypop5xQB,6,f,1,1,1120.6999999284744,Safe injection locations,Detention of migrant children,-1,1,2,4,1,1.5168173299110996,2,3,3,1.5168173299110996,-2,2,-4,0,1,4,1,-4,4,0,0,1.1206999999284744
2,R_1ir3HZuypop5xQB,7,j,2,0,1162.1000000238419,Safe injection locations,"Boycott, Divest, and Sanction Israel",-1,-1,2,4,1,1.5168173299110996,-1,6,3,-1.5740557197190654,-2,1,3,-3,2,3,2,-3,3,3,1,1.162100000023842
2,R_1ir3HZuypop5xQB,8,f,1,1,907.1000000238419,Remove Christopher Columbus statues,Abolishing fraternities,1,1,0,6,1,-0.543764703175677,2,6,2,1.5168173299110996,0,2,-2,-2,0,2,0,-2,2,-2,0,0.9071000000238418
2,R_1ir3HZuypop5xQB,9,j,2,0,940.3999999761581,Abolishing fraternities,Mandatory drug tests for welfare recipients,-1,1,2,6,2,1.5168173299110996,1,2,1,0.48652631336771124,-2,1,3,-1,-4,3,4,-3,3,1,1,0.9403999999761582
2,R_1ir3HZuypop5xQB,10,f,1,1,585.2999999523163,War on Drugs,Safe injection locations,1,1,2,5,2,1.5168173299110996,2,4,1,1.5168173299110996,2,2,0,0,1,0,1,0,0,0,0,0.5852999999523163
2,R_1ir3HZuypop5xQB,11,f,1,1,2167.5,On campus concealed carry,Recognize Jerusalem as capital of Israel,-1,-1,2,4,2,1.5168173299110996,0,7,3,-0.543764703175677,-2,-0,-2,2,-3,2,3,-2,2,2,0,2.1675
2,R_1ir3HZuypop5xQB,12,f,1,1,1633.6999999284744,Abolishing fraternities,Mandatory drug tests for welfare recipients,-1,-1,2,6,2,1.5168173299110996,1,2,1,0.48652631336771124,-2,-1,-1,1,4,1,4,-1,1,1,0,1.6336999999284745
2,R_1ir3HZuypop5xQB,13,j,2,0,794.2999999523163,"Boycott, Divest, and Sanction Israel",Safe injection locations,1,-1,-1,6,3,-1.5740557197190654,2,4,1,1.5168173299110996,-1,-2,-1,3,-2,1,2,1,-1,-3,1,0.7942999999523163
2,R_1ir3HZuypop5xQB,15,j,2,0,4325.299999952316,War on Drugs,University Campus should be a Sanctuary,1,-1,2,5,2,1.5168173299110996,2,7,2,1.5168173299110996,2,-2,-4,0,2,4,2,4,-4,0,1,4.325299999952316
2,R_1ir3HZuypop5xQB,16,f,1,1,1948.9000000953674,Safe injection locations,Dorms determined by gender identity,-1,-1,2,4,1,1.5168173299110996,1,4,2,0.48652631336771124,-2,-1,-1,1,0,1,0,-1,1,1,0,1.9489000000953673
2,R_1ir3HZuypop5xQB,17,f,1,1,608.6000000238419,Abolishing fraternities,"Boycott, Divest, and Sanction Israel",-1,1,2,6,2,1.5168173299110996,-1,6,3,-1.5740557197190654,-2,-1,-1,3,0,1,0,-1,1,3,0,0.6086000000238418
2,R_1ir3HZuypop5xQB,18,j,2,0,453.5,Abolishing fraternities,University Campus should be a Sanctuary,-1,1,2,6,2,1.5168173299110996,2,7,2,1.5168173299110996,-2,2,4,0,1,4,1,-4,4,0,1,0.4535
2,R_1ir3HZuypop5xQB,19,f,1,1,893.8000000715256,Increased Gun regulations,Abolishing fraternities,-1,-1,1,5,2,0.48652631336771124,2,6,2,1.5168173299110996,-1,-2,1,-1,-1,1,1,1,-1,-1,0,0.8938000000715256
2,R_1ir3HZuypop5xQB,20,f,1,1,3369.2000000476837,Safe injection locations,Mandatory drug tests for welfare recipients,1,1,2,4,1,1.5168173299110996,1,2,1,0.48652631336771124,2,1,1,1,2,1,2,1,-1,1,0,3.369200000047684
2,R_1ir3HZuypop5xQB,21,f,1,1,236.69999992847443,Ban on ethnic Halloween costumes,War on Drugs,-1,1,-1,5,3,-1.5740557197190654,2,5,2,1.5168173299110996,1,2,-1,-3,0,1,0,-1,1,-3,0,0.23669999992847443
2,R_1ir3HZuypop5xQB,22,f,1,1,4596,Expel students with white nationlist views,Safe injection locations,-1,1,2,3,3,1.5168173299110996,2,4,1,1.5168173299110996,-2,2,-4,0,-1,4,1,-4,4,0,0,4.596
2,R_1ir3HZuypop5xQB,23,f,1,1,2111.2999999523163,Abolishing fraternities,"Boycott, Divest, and Sanction Israel",1,1,2,6,2,1.5168173299110996,-1,6,3,-1.5740557197190654,2,-1,3,3,0,3,0,3,-3,3,0,2.1112999999523163
2,R_1ir3HZuypop5xQB,24,f,1,1,515.0999999046326,Abolishing fraternities,Recognize Jerusalem as capital of Israel,1,-1,2,6,2,1.5168173299110996,0,7,3,-0.543764703175677,2,-0,2,2,-1,2,1,2,-2,2,0,0.5150999999046326
2,R_1ir3HZuypop5xQB,25,f,1,1,386,Increased Gun regulations,War on Drugs,-1,1,1,5,2,0.48652631336771124,2,5,2,1.5168173299110996,-1,2,-3,-1,0,3,0,-3,3,-1,0,0.386
2,R_1ir3HZuypop5xQB,26,f,1,1,459.3000000715256,University Campus should be a Sanctuary,Safe injection locations,1,-1,2,7,2,1.5168173299110996,2,4,1,1.5168173299110996,2,-2,4,0,3,4,3,4,-4,0,0,0.45930000007152555
2,R_1ir3HZuypop5xQB,27,j,2,0,1728.6000000238419,Safe injection locations,Safe injection locations,1,-1,2,4,1,1.5168173299110996,2,4,1,1.5168173299110996,2,-2,-4,0,0,4,0,4,-4,0,1,1.728600000023842
2,R_1ir3HZuypop5xQB,28,j,2,0,352.39999997615814,Abolishing fraternities,War on Drugs,1,1,2,6,2,1.5168173299110996,2,5,2,1.5168173299110996,2,2,0,0,-1,0,1,0,0,0,1,0.3523999999761581
2,R_1ir3HZuypop5xQB,29,f,1,1,963.5,Abolishing fraternities,Affirmative action,1,1,2,6,2,1.5168173299110996,1,7,2,0.48652631336771124,2,1,1,1,-1,1,1,1,-1,1,0,0.9635
2,R_1ir3HZuypop5xQB,30,j,2,0,214.29999995231628,Safe injection locations,Gun-free campus police,1,1,2,4,1,1.5168173299110996,1,5,2,0.48652631336771124,2,1,-1,-1,1,1,1,1,-1,1,1,0.21429999995231627
2,R_1ir3HZuypop5xQB,31,f,1,1,314.7000000476837,Dorms determined by gender identity,Abolishing fraternities,1,-1,1,4,2,0.48652631336771124,2,6,2,1.5168173299110996,1,-2,3,-1,-2,3,2,3,-3,-1,0,0.3147000000476837
2,R_1ir3HZuypop5xQB,33,f,1,1,1087.5,Abolishing private prisons,Abolishing fraternities,-1,1,0,5,3,-0.543764703175677,2,6,2,1.5168173299110996,-0,2,-2,-2,-1,2,1,-2,2,-2,0,1.0875
2,R_1ir3HZuypop5xQB,35,j,2,0,401.59999990463257,Affirmative action,War on Drugs,1,1,1,7,2,0.48652631336771124,2,5,2,1.5168173299110996,1,2,1,1,-2,1,2,-1,1,-1,1,0.4015999999046326
2,R_1ir3HZuypop5xQB,36,j,2,0,770.2000000476837,On campus concealed carry,War on Drugs,1,-1,2,4,2,1.5168173299110996,2,5,2,1.5168173299110996,2,-2,-4,0,1,4,1,4,-4,0,1,0.7702000000476837
2,R_1ir3HZuypop5xQB,37,f,1,1,1271.8000000715256,On campus concealed carry,Abolishing fraternities,-1,-1,2,4,2,1.5168173299110996,2,6,2,1.5168173299110996,-2,-2,0,0,-2,0,2,0,0,0,0,1.2718000000715255
2,R_1ir3HZuypop5xQB,38,f,1,1,1704.7999999523163,Hardening schools/Arming teachers,Abolishing fraternities,1,1,0,4,3,-0.543764703175677,2,6,2,1.5168173299110996,0,2,-2,-2,-2,2,2,-2,2,-2,0,1.7047999999523162
2,R_1ir3HZuypop5xQB,39,f,1,1,859.6999999284744,Abolishing fraternities,Remove Christopher Columbus statues,-1,1,2,6,2,1.5168173299110996,0,6,1,-0.543764703175677,-2,0,-2,2,0,2,0,-2,2,2,0,0.8596999999284745
2,R_1ir3HZuypop5xQB,40,f,1,1,503.7000000476837,Abolishing fraternities,Climate change legislation,1,1,2,6,2,1.5168173299110996,1,4,2,0.48652631336771124,2,1,1,1,2,1,2,1,-1,1,0,0.5037000000476837
2,R_1ir3HZuypop5xQB,41,j,2,0,309.2999999523163,Cuts to National Parks budget,War on Drugs,1,1,1,4,2,0.48652631336771124,2,5,2,1.5168173299110996,1,2,1,1,1,1,1,-1,1,-1,1,0.3092999999523163
2,R_1ir3HZuypop5xQB,42,f,1,1,365.09999990463257,Mandatory drug tests for welfare recipients,Safe injection locations,-1,-1,1,2,1,0.48652631336771124,2,4,1,1.5168173299110996,-1,-2,1,-1,-2,1,2,1,-1,-1,0,0.36509999990463254
2,R_1ir3HZuypop5xQB,43,f,1,1,226.5,On campus concealed carry,University Campus should be a Sanctuary,1,-1,2,4,2,1.5168173299110996,2,7,2,1.5168173299110996,2,-2,4,0,-3,4,3,4,-4,0,0,0.2265
2,R_1ir3HZuypop5xQB,44,f,1,1,158.70000004768372,"Boycott, Divest, and Sanction Israel",Abolishing fraternities,-1,1,-1,6,3,-1.5740557197190654,2,6,2,1.5168173299110996,1,2,-1,-3,0,1,0,-1,1,-3,0,0.15870000004768373
2,R_1ir3HZuypop5xQB,45,f,1,1,1094.2999999523163,University Campus should be a Sanctuary,Abolishing fraternities,-1,1,2,7,2,1.5168173299110996,2,6,2,1.5168173299110996,-2,2,-4,0,1,4,1,-4,4,0,0,1.0942999999523162
2,R_1ir3HZuypop5xQB,46,f,1,1,1089.1000000238419,Abolishing fraternities,"Boycott, Divest, and Sanction Israel",-1,-1,2,6,2,1.5168173299110996,-1,6,3,-1.5740557197190654,-2,1,-3,3,0,3,0,-3,3,3,0,1.0891000000238418
2,R_1ir3HZuypop5xQB,47,f,1,1,207.19999992847443,Lift COVID lockdowns,Abolishing fraternities,1,-1,0,2,3,-0.543764703175677,2,6,2,1.5168173299110996,0,-2,2,-2,-4,2,4,2,-2,-2,0,0.20719999992847443
2,R_1ir3HZuypop5xQB,48,f,1,1,970.6999999284744,Abolishing private prisons,Safe injection locations,1,-1,0,5,3,-0.543764703175677,2,4,1,1.5168173299110996,0,-2,2,-2,1,2,1,2,-2,-2,0,0.9706999999284744
2,R_1ir3HZuypop5xQB,49,j,2,0,1095.5,Stop police brutality,Safe injection locations,1,-1,-1,7,3,-1.5740557197190654,2,4,1,1.5168173299110996,-1,-2,-1,3,-3,1,3,1,-1,-3,1,1.0955
2,R_1ir3HZuypop5xQB,50,j,2,0,2314.7999999523163,War on Drugs,Expel students with white nationlist views,1,1,2,5,2,1.5168173299110996,2,3,3,1.5168173299110996,2,2,0,0,-2,0,2,0,0,0,1,2.3147999999523163
2,R_1ir3HZuypop5xQB,52,f,1,1,781.7000000476837,Safe injection locations,Bathrooms restricted based on biological sex,-1,1,2,4,1,1.5168173299110996,0,2,3,-0.543764703175677,-2,0,-2,2,2,2,2,-2,2,2,0,0.7817000000476837
2,R_1ir3HZuypop5xQB,53,f,1,1,235,Ban on ethnic Halloween costumes,Abolishing fraternities,-1,-1,-1,5,3,-1.5740557197190654,2,6,2,1.5168173299110996,1,-2,3,-3,-1,3,1,3,-3,-3,0,0.235
2,R_1ir3HZuypop5xQB,54,j,2,0,1037.1000000238419,Remove Christopher Columbus statues,On campus concealed carry,-1,1,0,6,1,-0.543764703175677,2,4,2,1.5168173299110996,-0,2,2,2,-2,2,2,-2,2,-2,1,1.037100000023842
2,R_1ir3HZuypop5xQB,55,j,2,0,443.2999999523163,Abolishing fraternities,War on Drugs,-1,-1,2,6,2,1.5168173299110996,2,5,2,1.5168173299110996,-2,-2,0,0,-1,0,1,0,0,0,1,0.4432999999523163
2,R_1ir3HZuypop5xQB,56,j,2,0,462.39999997615814,Black Lives Matter,On campus concealed carry,-1,1,1,4,2,0.48652631336771124,2,4,2,1.5168173299110996,-1,2,3,1,0,3,0,-3,3,-1,1,0.46239999997615816
2,R_1ir3HZuypop5xQB,57,j,2,0,1151.7000000476837,Abolishing fraternities,University Campus should be a Sanctuary,1,1,2,6,2,1.5168173299110996,2,7,2,1.5168173299110996,2,2,0,0,1,0,1,0,0,0,1,1.1517000000476838
2,R_1ir3HZuypop5xQB,58,f,1,1,944.7999999523163,Abolishing fraternities,University Campus should be a Sanctuary,-1,-1,2,6,2,1.5168173299110996,2,7,2,1.5168173299110996,-2,-2,0,0,-1,0,1,0,0,0,0,0.9447999999523163
2,R_1ir3HZuypop5xQB,59,f,1,1,291,War on Drugs,Stop police brutality,1,1,2,5,2,1.5168173299110996,-1,7,3,-1.5740557197190654,2,-1,3,3,-2,3,2,3,-3,3,0,0.291
2,R_1ir3HZuypop5xQB,60,f,1,1,229,Safe injection locations,Expel students with white nationlist views,-1,-1,2,4,1,1.5168173299110996,2,3,3,1.5168173299110996,-2,-2,0,0,1,0,1,0,0,0,0,0.229
2,R_1ir3HZuypop5xQB,61,f,1,1,2163.600000023842,Abolishing fraternities,Abolishing fraternities,1,-1,2,6,2,1.5168173299110996,2,6,2,1.5168173299110996,2,-2,4,0,0,4,0,4,-4,0,0,2.163600000023842
2,R_1ir3HZuypop5xQB,62,f,1,1,519.2000000476837,Safe injection locations,Mask mandates,1,-1,2,4,1,1.5168173299110996,0,4,3,-0.543764703175677,2,-0,2,2,0,2,0,2,-2,2,0,0.5192000000476837
2,R_1ir3HZuypop5xQB,63,f,1,1,671.4000000953674,War on Drugs,On campus concealed carry,-1,-1,2,5,2,1.5168173299110996,2,4,2,1.5168173299110996,-2,-2,0,0,1,0,1,0,0,0,0,0.6714000000953674
2,R_1ir3HZuypop5xQB,64,j,2,0,448.10000002384186,Abolishing fraternities,Expel students with white nationlist views,-1,-1,2,6,2,1.5168173299110996,2,3,3,1.5168173299110996,-2,-2,0,0,-3,0,3,0,0,0,1,0.44810000002384187
2,R_1ir3HZuypop5xQB,65,j,2,0,1105.5,Defund the police,On campus concealed carry,-1,1,1,7,2,0.48652631336771124,2,4,2,1.5168173299110996,-1,2,3,1,-3,3,3,-3,3,-1,1,1.1055
2,R_1ir3HZuypop5xQB,66,j,2,0,694,Abolishing fraternities,Recognize Jerusalem as capital of Israel,-1,1,2,6,2,1.5168173299110996,0,7,3,-0.543764703175677,-2,0,2,-2,1,2,1,-2,2,2,1,0.694
2,R_1ir3HZuypop5xQB,67,f,1,1,344.89999997615814,Cuts to National Parks budget,Safe injection locations,1,1,1,4,2,0.48652631336771124,2,4,1,1.5168173299110996,1,2,-1,-1,0,1,0,-1,1,-1,0,0.34489999997615817
2,R_1ir3HZuypop5xQB,68,j,2,0,855.1000000238419,Safe injection locations,Mandatory training on sexual consent,-1,1,2,4,1,1.5168173299110996,0,4,2,-0.543764703175677,-2,0,2,-2,0,2,0,-2,2,2,1,0.8551000000238419
2,R_1ir3HZuypop5xQB,69,f,1,1,1558.7999999523163,Abolishing fraternities,Detention of migrant children,1,-1,2,6,2,1.5168173299110996,2,3,3,1.5168173299110996,2,-2,4,0,3,4,3,4,-4,0,0,1.5587999999523163
2,R_1ir3HZuypop5xQB,70,f,1,1,258.60000002384186,Safe injection locations,Abolishing private prisons,1,1,2,4,1,1.5168173299110996,0,5,3,-0.543764703175677,2,0,2,2,-1,2,1,2,-2,2,0,0.25860000002384187
2,R_1ir3HZuypop5xQB,71,f,1,1,860,Abolishing fraternities,Black Lives Matter,-1,-1,2,6,2,1.5168173299110996,1,4,2,0.48652631336771124,-2,-1,-1,1,2,1,2,-1,1,1,0,0.86
2,R_1ir3HZuypop5xQB,72,j,2,0,534.0999999046326,War on Drugs,Abolishing fraternities,1,-1,2,5,2,1.5168173299110996,2,6,2,1.5168173299110996,2,-2,-4,0,1,4,1,4,-4,0,1,0.5340999999046325
2,R_1ir3HZuypop5xQB,73,j,2,0,875.3999999761581,Bathrooms restricted based on biological sex,On campus concealed carry,-1,1,0,2,3,-0.543764703175677,2,4,2,1.5168173299110996,-0,2,2,2,2,2,2,-2,2,-2,1,0.8753999999761581
2,R_1ir3HZuypop5xQB,74,f,1,1,184.80000007152557,"Boycott, Divest, and Sanction Israel",On campus concealed carry,1,1,-1,6,3,-1.5740557197190654,2,4,2,1.5168173299110996,-1,2,-3,-3,2,3,2,-3,3,-3,0,0.18480000007152558
2,R_1ir3HZuypop5xQB,76,j,2,0,263.89999997615814,Ban on ethnic Halloween costumes,Abolishing fraternities,-1,1,-1,5,3,-1.5740557197190654,2,6,2,1.5168173299110996,1,2,1,3,1,1,1,-1,1,-3,1,0.26389999997615815
2,R_1ir3HZuypop5xQB,77,f,1,1,1044.8999999761581,War on Drugs,War on Drugs,-1,1,2,5,2,1.5168173299110996,2,5,2,1.5168173299110996,-2,2,-4,0,0,4,0,-4,4,0,0,1.0448999999761581
2,R_1ir3HZuypop5xQB,78,f,1,1,352.5,Abolishing fraternities,On campus concealed carry,1,1,2,6,2,1.5168173299110996,2,4,2,1.5168173299110996,2,2,0,0,2,0,2,0,0,0,0,0.3525
2,R_1ir3HZuypop5xQB,81,j,2,0,327.7999999523163,Ban on ethnic Halloween costumes,On campus concealed carry,1,-1,-1,5,3,-1.5740557197190654,2,4,2,1.5168173299110996,-1,-2,-1,3,-1,1,1,1,-1,-3,1,0.3277999999523163
2,R_1ir3HZuypop5xQB,82,j,2,0,423.89999997615814,On campus concealed carry,Gun-free campus police,-1,1,2,4,2,1.5168173299110996,1,5,2,0.48652631336771124,-2,1,3,-1,1,3,1,-3,3,1,1,0.4238999999761581
2,R_1ir3HZuypop5xQB,83,f,1,1,151,Detention of migrant children,Abolishing fraternities,1,-1,2,3,3,1.5168173299110996,2,6,2,1.5168173299110996,2,-2,4,0,-3,4,3,4,-4,0,0,0.151
2,R_1ir3HZuypop5xQB,84,j,2,0,216,On campus concealed carry,Affirmative action,1,1,2,4,2,1.5168173299110996,1,7,2,0.48652631336771124,2,1,-1,-1,3,1,3,1,-1,1,1,0.216
2,R_1ir3HZuypop5xQB,85,j,2,0,235.39999997615814,Abolishing fraternities,Stop police brutality,1,1,2,6,2,1.5168173299110996,-1,7,3,-1.5740557197190654,2,-1,-3,-3,1,3,1,3,-3,3,1,0.23539999997615815
2,R_1ir3HZuypop5xQB,88,j,2,0,624.1999999284744,Mandatory drug tests for welfare recipients,Abolishing fraternities,1,1,1,2,1,0.48652631336771124,2,6,2,1.5168173299110996,1,2,1,1,4,1,4,-1,1,-1,1,0.6241999999284744
2,R_1ir3HZuypop5xQB,89,j,2,0,607.6000000238419,Recognize Jerusalem as capital of Israel,Safe injection locations,-1,1,0,7,3,-0.543764703175677,2,4,1,1.5168173299110996,-0,2,2,2,-3,2,3,-2,2,-2,1,0.6076000000238418
2,R_1ir3HZuypop5xQB,90,j,2,0,742.2000000476837,Dorms determined by gender identity,On campus concealed carry,1,-1,1,4,2,0.48652631336771124,2,4,2,1.5168173299110996,1,-2,-3,1,0,3,0,3,-3,-1,1,0.7422000000476837
2,R_1ir3HZuypop5xQB,91,j,2,0,533.5,On campus concealed carry,Abolishing fraternities,1,-1,2,4,2,1.5168173299110996,2,6,2,1.5168173299110996,2,-2,-4,0,2,4,2,4,-4,0,1,0.5335
2,R_1ir3HZuypop5xQB,93,j,2,0,310.7000000476837,On campus concealed carry,"Boycott, Divest, and Sanction Israel",1,-1,2,4,2,1.5168173299110996,-1,6,3,-1.5740557197190654,2,1,-1,-3,2,1,2,1,-1,3,1,0.3107000000476837
2,R_1ir3HZuypop5xQB,94,j,2,0,279.10000002384186,Mandatory drug tests for welfare recipients,On campus concealed carry,-1,1,1,2,1,0.48652631336771124,2,4,2,1.5168173299110996,-1,2,3,1,2,3,2,-3,3,-1,1,0.27910000002384183
2,R_1ir3HZuypop5xQB,96,j,2,0,825.3999999761581,Safe injection locations,Affirmative action,-1,1,2,4,1,1.5168173299110996,1,7,2,0.48652631336771124,-2,1,3,-1,3,3,3,-3,3,1,1,0.8253999999761581
2,R_1ir3HZuypop5xQB,97,f,1,1,165.40000009536743,Abolishing fraternities,Expel students with white nationlist views,1,1,2,6,2,1.5168173299110996,2,3,3,1.5168173299110996,2,2,0,0,3,0,3,0,0,0,0,0.16540000009536743
2,R_1ir3HZuypop5xQB,98,f,1,1,256.7000000476837,War on Drugs,Safe injection locations,1,-1,2,5,2,1.5168173299110996,2,4,1,1.5168173299110996,2,-2,4,0,1,4,1,4,-4,0,0,0.25670000004768373
2,R_1ir3HZuypop5xQB,99,f,1,1,361.2000000476837,University Campus should be a Sanctuary,War on Drugs,1,1,2,7,2,1.5168173299110996,2,5,2,1.5168173299110996,2,2,0,0,2,0,2,0,0,0,0,0.3612000000476837
6,R_2Si8iSDiTMldrAB,1,j,2,0,11777.300000000745,Climate change legislation,On campus concealed carry,-1,1,3,8,3,1.1278690186247062,1,1,3,0.31874559222002574,-3,1,4,-2,-7,4,7,-4,4,2,1,11.777300000000745
6,R_2Si8iSDiTMldrAB,2,j,2,0,4628.199999999255,Bathrooms restricted based on biological sex,Build southern border wall,1,-1,-3,4,4,-1.2995012605893355,-3,8,4,-1.2995012605893355,-3,3,6,0,4,6,4,-6,6,0,1,4.628199999999255
6,R_2Si8iSDiTMldrAB,3,f,1,1,7049.0999999996275,Cuts to National Parks budget,Student worker unionization,-1,-1,-2,5,3,-0.8949395473869951,3,5,4,1.1278690186247062,2,-3,5,-5,0,5,0,5,-5,-5,0,7.049099999999627
6,R_2Si8iSDiTMldrAB,4,f,1,1,3372.9000000003725,Student worker unionization,Mask mandates,-1,-1,3,5,4,1.1278690186247062,3,7,4,1.1278690186247062,-3,-3,0,0,-2,0,2,0,0,0,0,3.3729000000003726
6,R_2Si8iSDiTMldrAB,5,f,1,1,3633.9000000003725,Climate change legislation,Defund Planned Parenthood,1,1,3,8,3,1.1278690186247062,-3,7,2,-1.2995012605893355,3,-3,6,6,1,6,1,6,-6,6,0,3.6339000000003727
6,R_2Si8iSDiTMldrAB,6,f,1,1,4636.5999999996275,Affirmative action,Abolishing private prisons,1,-1,2,4,3,0.7233073054223661,3,8,4,1.1278690186247062,2,-3,5,-1,-4,5,4,5,-5,-1,0,4.6365999999996275
6,R_2Si8iSDiTMldrAB,7,f,1,1,3763,Black Lives Matter,Allow alt-right speakers on campus,1,1,3,8,4,1.1278690186247062,-3,6,4,-1.2995012605893355,3,-3,6,6,2,6,2,6,-6,6,0,3.763
6,R_2Si8iSDiTMldrAB,8,f,1,1,6612.9000000003725,Expel students with white nationlist views,War on Drugs,-1,1,3,8,4,1.1278690186247062,-3,7,4,-1.2995012605893355,-3,-3,0,6,1,0,1,0,0,6,0,6.612900000000373
6,R_2Si8iSDiTMldrAB,9,f,1,1,4194.0999999996275,Remove police from schools,Climate change legislation,-1,-1,1,2,4,0.31874559222002574,3,8,3,1.1278690186247062,-1,-3,2,-2,-6,2,6,2,-2,-2,0,4.194099999999628
6,R_2Si8iSDiTMldrAB,10,j,2,0,4783.5,On campus concealed carry,Student worker unionization,-1,1,1,1,3,0.31874559222002574,3,5,4,1.1278690186247062,-1,3,4,2,4,4,4,-4,4,-2,1,4.7835
6,R_2Si8iSDiTMldrAB,11,f,1,1,5525.5,Student worker unionization,Increased Gun regulations,-1,-1,3,5,4,1.1278690186247062,2,6,3,0.7233073054223661,-3,-2,-1,1,-1,1,1,-1,1,1,0,5.5255
6,R_2Si8iSDiTMldrAB,12,f,1,1,8602.10000000149,On campus concealed carry,Climate change legislation,-1,-1,1,1,3,0.31874559222002574,3,8,3,1.1278690186247062,-1,-3,2,-2,-7,2,7,2,-2,-2,0,8.60210000000149
6,R_2Si8iSDiTMldrAB,13,f,1,1,26663.60000000149,Student worker unionization,Ban on research with animals,1,-1,3,5,4,1.1278690186247062,-1,0,3,-0.4903778341846548,3,1,2,4,5,2,5,2,-2,4,0,26.66360000000149
6,R_2Si8iSDiTMldrAB,14,j,2,0,2640.4000000003725,War on Drugs,Student worker unionization,1,1,-3,7,4,-1.2995012605893355,3,5,4,1.1278690186247062,-3,3,6,6,-2,6,2,-6,6,-6,1,2.6404000000003727
6,R_2Si8iSDiTMldrAB,15,j,2,0,8270.800000000745,Religious exemptions for discrimination laws,Student worker unionization,1,1,-1,0,1,-0.4903778341846548,3,5,4,1.1278690186247062,-1,3,4,4,5,4,5,-4,4,-4,1,8.270800000000746
6,R_2Si8iSDiTMldrAB,16,j,2,0,2937.0999999996275,Student worker unionization,On campus concealed carry,-1,1,3,5,4,1.1278690186247062,1,1,3,0.31874559222002574,-3,1,4,-2,-4,4,4,-4,4,2,1,2.9370999999996275
6,R_2Si8iSDiTMldrAB,17,j,2,0,2885.800000000745,Bathrooms restricted based on biological sex,Student worker unionization,1,-1,-3,4,4,-1.2995012605893355,3,5,4,1.1278690186247062,-3,-3,0,6,1,0,1,0,0,-6,1,2.885800000000745
6,R_2Si8iSDiTMldrAB,18,f,1,1,16392.5,Abolishing private prisons,Mask mandates,1,1,3,8,4,1.1278690186247062,3,7,4,1.1278690186247062,3,3,0,0,1,0,1,0,0,0,0,16.3925
6,R_2Si8iSDiTMldrAB,19,j,2,0,20376,Student worker unionization,Remove police from schools,-1,1,3,5,4,1.1278690186247062,1,2,4,0.31874559222002574,-3,1,4,-2,-3,4,3,-4,4,2,1,20.376
6,R_2Si8iSDiTMldrAB,20,j,2,0,20417.199999999255,Mandatory vaccinations,Student worker unionization,-1,1,1,6,3,0.31874559222002574,3,5,4,1.1278690186247062,-1,3,4,2,-1,4,1,-4,4,-2,1,20.417199999999255
6,R_2Si8iSDiTMldrAB,21,f,1,1,3970.7999999988824,Increased Gun regulations,Student worker unionization,1,1,2,6,3,0.7233073054223661,3,5,4,1.1278690186247062,2,3,-1,-1,1,1,1,-1,1,-1,0,3.9707999999988823
6,R_2Si8iSDiTMldrAB,22,f,1,1,6911.9000000003725,Student worker unionization,Hardening schools/Arming teachers,-1,1,3,5,4,1.1278690186247062,-3,6,4,-1.2995012605893355,-3,-3,0,6,-1,0,1,0,0,6,0,6.911900000000372
6,R_2Si8iSDiTMldrAB,23,f,1,1,3215.2999999988824,Student worker unionization,Dorms determined by gender identity,-1,1,3,5,4,1.1278690186247062,-2,4,1,-0.8949395473869951,-3,-2,-1,5,1,1,1,-1,1,5,0,3.2152999999988823
6,R_2Si8iSDiTMldrAB,24,j,2,0,1771.3999999985099,Abolishing private prisons,Student worker unionization,-1,1,3,8,4,1.1278690186247062,3,5,4,1.1278690186247062,-3,3,6,0,-3,6,3,-6,6,0,1,1.77139999999851
6,R_2Si8iSDiTMldrAB,25,j,2,0,2961.4000000003725,Student worker unionization,Allow alt-right speakers on campus,-1,-1,3,5,4,1.1278690186247062,-3,6,4,-1.2995012605893355,-3,3,6,-6,1,6,1,-6,6,6,1,2.9614000000003724
6,R_2Si8iSDiTMldrAB,26,j,2,0,5294.700000001118,Build southern border wall,Abolishing fraternities,1,1,-3,8,4,-1.2995012605893355,1,4,3,0.31874559222002574,-3,1,4,4,-4,4,4,-4,4,-4,1,5.294700000001118
6,R_2Si8iSDiTMldrAB,27,f,1,1,10465.099999999627,Ban on research with animals,Stop police brutality,1,-1,-1,0,3,-0.4903778341846548,3,8,4,1.1278690186247062,-1,-3,2,-4,-8,2,8,2,-2,-4,0,10.465099999999627
6,R_2Si8iSDiTMldrAB,28,j,2,0,10949.199999999255,Raise the minimum wage,Increased Gun regulations,-1,1,3,8,4,1.1278690186247062,2,6,3,0.7233073054223661,-3,2,5,-1,-2,5,2,-5,5,1,1,10.949199999999255
6,R_2Si8iSDiTMldrAB,29,j,2,0,20004,Student worker unionization,Mandatory trigger warnings,1,1,3,5,4,1.1278690186247062,2,5,3,0.7233073054223661,3,2,-1,-1,0,1,0,1,-1,1,1,20.004
6,R_2Si8iSDiTMldrAB,30,f,1,1,5703.5999999996275,Ban on research with animals,Student worker unionization,-1,-1,-1,0,3,-0.4903778341846548,3,5,4,1.1278690186247062,1,-3,4,-4,-5,4,5,4,-4,-4,0,5.703599999999628
6,R_2Si8iSDiTMldrAB,31,f,1,1,2383.39999999851,Bathrooms restricted based on biological sex,Black Lives Matter,1,-1,-3,4,4,-1.2995012605893355,3,8,4,1.1278690186247062,-3,-3,0,-6,-4,0,4,0,0,-6,0,2.38339999999851
6,R_2Si8iSDiTMldrAB,32,f,1,1,6345.700000001118,Mask mandates,Student worker unionization,1,1,3,7,4,1.1278690186247062,3,5,4,1.1278690186247062,3,3,0,0,2,0,2,0,0,0,0,6.345700000001117
6,R_2Si8iSDiTMldrAB,33,j,2,0,3702.0999999996275,Religious exemptions for discrimination laws,Student worker unionization,1,-1,-1,0,1,-0.4903778341846548,3,5,4,1.1278690186247062,-1,-3,-2,4,5,2,5,2,-2,-4,1,3.7020999999996276
6,R_2Si8iSDiTMldrAB,34,j,2,0,13820.199999999255,Student worker unionization,Remove police from schools,1,1,3,5,4,1.1278690186247062,1,2,4,0.31874559222002574,3,1,-2,-2,-3,2,3,2,-2,2,1,13.820199999999256
6,R_2Si8iSDiTMldrAB,35,j,2,0,14601.699999999255,Expel students with white nationlist views,Cuts to National Parks budget,-1,1,3,8,4,1.1278690186247062,-2,5,3,-0.8949395473869951,-3,-2,1,-5,-3,1,3,-1,1,5,1,14.601699999999255
6,R_2Si8iSDiTMldrAB,36,f,1,1,2859.89999999851,On campus concealed carry,Student worker unionization,1,1,1,1,3,0.31874559222002574,3,5,4,1.1278690186247062,1,3,-2,-2,-4,2,4,-2,2,-2,0,2.8598999999985097
6,R_2Si8iSDiTMldrAB,37,j,2,0,3116.0999999996275,Increased Gun regulations,Climate change legislation,-1,1,2,6,3,0.7233073054223661,3,8,3,1.1278690186247062,-2,3,5,1,2,5,2,-5,5,-1,1,3.1160999999996273
6,R_2Si8iSDiTMldrAB,38,f,1,1,3608.5,Student worker unionization,Affirmative action,1,-1,3,5,4,1.1278690186247062,2,4,3,0.7233073054223661,3,-2,5,1,1,5,1,5,-5,1,0,3.6085
6,R_2Si8iSDiTMldrAB,39,j,2,0,17779.5,Ban on research with animals,Raise the minimum wage,1,1,-1,0,3,-0.4903778341846548,3,8,4,1.1278690186247062,-1,3,4,4,8,4,8,-4,4,-4,1,17.7795
6,R_2Si8iSDiTMldrAB,40,j,2,0,28775.400000000373,Climate change legislation,Bathrooms restricted based on biological sex,-1,-1,3,8,3,1.1278690186247062,-3,4,4,-1.2995012605893355,-3,3,6,-6,-4,6,4,-6,6,6,1,28.775400000000374
6,R_2Si8iSDiTMldrAB,41,f,1,1,5340.9000000003725,Dorms determined by gender identity,Student worker unionization,-1,1,-2,4,1,-0.8949395473869951,3,5,4,1.1278690186247062,2,3,-1,-5,-1,1,1,-1,1,-5,0,5.340900000000373
6,R_2Si8iSDiTMldrAB,42,f,1,1,5650.89999999851,Student worker unionization,Student worker unionization,1,-1,3,5,4,1.1278690186247062,3,5,4,1.1278690186247062,3,-3,6,0,0,6,0,6,-6,0,0,5.65089999999851
6,R_2Si8iSDiTMldrAB,43,j,2,0,2071.699999999255,Mandatory vaccinations,Student worker unionization,-1,-1,1,6,3,0.31874559222002574,3,5,4,1.1278690186247062,-1,-3,-2,2,-1,2,1,2,-2,-2,1,2.071699999999255
6,R_2Si8iSDiTMldrAB,44,j,2,0,15693,Remove police from schools,Student worker unionization,-1,1,1,2,4,0.31874559222002574,3,5,4,1.1278690186247062,-1,3,4,2,3,4,3,-4,4,-2,1,15.693
6,R_2Si8iSDiTMldrAB,45,f,1,1,10066.5,Student worker unionization,Abolishing fraternities,-1,-1,3,5,4,1.1278690186247062,1,4,3,0.31874559222002574,-3,-1,-2,2,1,2,1,-2,2,2,0,10.0665
6,R_2Si8iSDiTMldrAB,46,j,2,0,5085.299999998882,Abortion rights,Hardening schools/Arming teachers,1,-1,3,8,4,1.1278690186247062,-3,6,4,-1.2995012605893355,3,3,0,-6,-2,0,2,0,0,6,1,5.085299999998883
6,R_2Si8iSDiTMldrAB,47,f,1,1,1864.199999999255,Stop police brutality,Dorms determined by gender identity,1,1,3,8,4,1.1278690186247062,-2,4,1,-0.8949395473869951,3,-2,5,5,4,5,4,5,-5,5,0,1.864199999999255
6,R_2Si8iSDiTMldrAB,48,j,2,0,2238,Remove police from schools,Student worker unionization,-1,-1,1,2,4,0.31874559222002574,3,5,4,1.1278690186247062,-1,-3,-2,2,3,2,3,2,-2,-2,1,2.238
6,R_2Si8iSDiTMldrAB,49,j,2,0,22640.300000000745,Student worker unionization,Gun-free campus police,1,1,3,5,4,1.1278690186247062,0,4,3,-0.08581612098231453,3,0,-3,-3,-1,3,1,3,-3,3,1,22.640300000000746
6,R_2Si8iSDiTMldrAB,50,j,2,0,9815.5,Ban on ethnic Halloween costumes,Expel students with white nationlist views,-1,1,0,0,2,-0.08581612098231453,3,8,4,1.1278690186247062,-0,3,3,3,8,3,8,-3,3,-3,1,9.8155
6,R_2Si8iSDiTMldrAB,51,j,2,0,3806,Expel students with white nationlist views,Abolishing fraternities,-1,-1,3,8,4,1.1278690186247062,1,4,3,0.31874559222002574,-3,-1,2,-2,-4,2,4,-2,2,2,1,3.806
6,R_2Si8iSDiTMldrAB,52,j,2,0,2748,On campus concealed carry,Student worker unionization,-1,-1,1,1,3,0.31874559222002574,3,5,4,1.1278690186247062,-1,-3,-2,2,4,2,4,2,-2,-2,1,2.748
6,R_2Si8iSDiTMldrAB,53,j,2,0,4204,Student worker unionization,Mandatory vaccinations,1,1,3,5,4,1.1278690186247062,1,6,3,0.31874559222002574,3,1,-2,-2,1,2,1,2,-2,2,1,4.204
6,R_2Si8iSDiTMldrAB,54,f,1,1,2293.800000000745,Climate change legislation,Ban on ethnic Halloween costumes,-1,-1,3,8,3,1.1278690186247062,0,0,2,-0.08581612098231453,-3,-0,-3,3,8,3,8,-3,3,3,0,2.2938000000007452
6,R_2Si8iSDiTMldrAB,55,j,2,0,3699.4000000003725,Student worker unionization,Defund Planned Parenthood,-1,-1,3,5,4,1.1278690186247062,-3,7,2,-1.2995012605893355,-3,3,6,-6,2,6,2,-6,6,6,1,3.6994000000003724
6,R_2Si8iSDiTMldrAB,56,f,1,1,2328.199999999255,Mandatory vaccinations,Student worker unionization,1,-1,1,6,3,0.31874559222002574,3,5,4,1.1278690186247062,1,-3,4,-2,1,4,1,4,-4,-2,0,2.328199999999255
6,R_2Si8iSDiTMldrAB,57,j,2,0,6890.300000000745,Ban on ethnic Halloween costumes,Student worker unionization,1,1,0,0,2,-0.08581612098231453,3,5,4,1.1278690186247062,0,3,3,3,5,3,5,-3,3,-3,1,6.890300000000745
6,R_2Si8iSDiTMldrAB,58,f,1,1,2708.9000000003725,Mandatory drug tests for welfare recipients,Build southern border wall,1,1,-3,6,3,-1.2995012605893355,-3,8,4,-1.2995012605893355,-3,-3,0,0,-2,0,2,0,0,0,0,2.7089000000003725
6,R_2Si8iSDiTMldrAB,59,f,1,1,5440.4000000003725,Remove public Confederate memorials,On campus concealed carry,1,-1,3,8,4,1.1278690186247062,1,1,3,0.31874559222002574,3,-1,4,2,7,4,7,4,-4,2,0,5.4404000000003725
6,R_2Si8iSDiTMldrAB,60,f,1,1,2943.7000000011176,Abolishing fraternities,Student worker unionization,1,-1,1,4,3,0.31874559222002574,3,5,4,1.1278690186247062,1,-3,4,-2,-1,4,1,4,-4,-2,0,2.9437000000011175
6,R_2Si8iSDiTMldrAB,61,j,2,0,2292.699999999255,Expel students with white nationlist views,Bathrooms restricted based on biological sex,1,-1,3,8,4,1.1278690186247062,-3,4,4,-1.2995012605893355,3,3,0,-6,-4,0,4,0,0,6,1,2.292699999999255
6,R_2Si8iSDiTMldrAB,62,f,1,1,8397.300000000745,Build southern border wall,Abolishing fraternities,-1,-1,-3,8,4,-1.2995012605893355,1,4,3,0.31874559222002574,3,-1,4,-4,4,4,4,4,-4,-4,0,8.397300000000746
6,R_2Si8iSDiTMldrAB,63,j,2,0,4881,Mandatory vaccinations,Abortion rights,-1,1,1,6,3,0.31874559222002574,3,8,4,1.1278690186247062,-1,3,4,2,2,4,2,-4,4,-2,1,4.881
6,R_2Si8iSDiTMldrAB,64,f,1,1,18894.400000000373,Abolishing private prisons,Expel students with white nationlist views,1,-1,3,8,4,1.1278690186247062,3,8,4,1.1278690186247062,3,-3,6,0,0,6,0,6,-6,0,0,18.894400000000374
6,R_2Si8iSDiTMldrAB,65,j,2,0,1811.300000000745,Abolishing fraternities,Student worker unionization,-1,1,1,4,3,0.31874559222002574,3,5,4,1.1278690186247062,-1,3,4,2,1,4,1,-4,4,-2,1,1.811300000000745
6,R_2Si8iSDiTMldrAB,66,f,1,1,5420.4000000003725,Student worker unionization,Mandatory trigger warnings,1,-1,3,5,4,1.1278690186247062,2,5,3,0.7233073054223661,3,-2,5,1,0,5,0,5,-5,1,0,5.420400000000373
6,R_2Si8iSDiTMldrAB,67,j,2,0,17574,Climate change legislation,War on Drugs,-1,-1,3,8,3,1.1278690186247062,-3,7,4,-1.2995012605893355,-3,3,6,-6,-1,6,1,-6,6,6,1,17.574
6,R_2Si8iSDiTMldrAB,68,j,2,0,36161.800000000745,Remove police from schools,Remove public Confederate memorials,-1,1,1,2,4,0.31874559222002574,3,8,4,1.1278690186247062,-1,3,4,2,6,4,6,-4,4,-2,1,36.161800000000746
6,R_2Si8iSDiTMldrAB,69,j,2,0,7428.200000001118,Mandatory trigger warnings,Student worker unionization,-1,-1,2,5,3,0.7233073054223661,3,5,4,1.1278690186247062,-2,-3,-1,1,0,1,0,1,-1,-1,1,7.428200000001118
6,R_2Si8iSDiTMldrAB,70,f,1,1,7280.4000000003725,Mandatory vaccinations,Remove public Confederate memorials,1,-1,1,6,3,0.31874559222002574,3,8,4,1.1278690186247062,1,-3,4,-2,-2,4,2,4,-4,-2,0,7.280400000000372
6,R_2Si8iSDiTMldrAB,71,f,1,1,12497.5,Ban on research with animals,Black Lives Matter,-1,-1,-1,0,3,-0.4903778341846548,3,8,4,1.1278690186247062,1,-3,4,-4,-8,4,8,4,-4,-4,0,12.4975
6,R_2Si8iSDiTMldrAB,72,j,2,0,5546.699999999255,Student worker unionization,Stop police brutality,-1,1,3,5,4,1.1278690186247062,3,8,4,1.1278690186247062,-3,3,6,0,3,6,3,-6,6,0,1,5.546699999999255
6,R_2Si8iSDiTMldrAB,73,j,2,0,25141.400000000373,Abolishing private prisons,Mandatory trigger warnings,-1,1,3,8,4,1.1278690186247062,2,5,3,0.7233073054223661,-3,2,5,-1,-3,5,3,-5,5,1,1,25.141400000000374
6,R_2Si8iSDiTMldrAB,74,j,2,0,2246.800000000745,Student worker unionization,Expel students with white nationlist views,1,1,3,5,4,1.1278690186247062,3,8,4,1.1278690186247062,3,3,0,0,3,0,3,0,0,0,1,2.246800000000745
6,R_2Si8iSDiTMldrAB,75,f,1,1,2508,Raise the minimum wage,On campus concealed carry,1,1,3,8,4,1.1278690186247062,1,1,3,0.31874559222002574,3,1,2,2,7,2,7,2,-2,2,0,2.508
6,R_2Si8iSDiTMldrAB,76,f,1,1,1624.0999999996275,Affirmative action,Student worker unionization,1,-1,2,4,3,0.7233073054223661,3,5,4,1.1278690186247062,2,-3,5,-1,-1,5,1,5,-5,-1,0,1.6240999999996275
6,R_2Si8iSDiTMldrAB,77,f,1,1,3016.699999999255,Build southern border wall,Mandatory vaccinations,1,-1,-3,8,4,-1.2995012605893355,1,6,3,0.31874559222002574,-3,-1,-2,-4,2,2,2,-2,2,-4,0,3.016699999999255
6,R_2Si8iSDiTMldrAB,78,j,2,0,3566.60000000149,Affirmative action,Abolishing private prisons,1,1,2,4,3,0.7233073054223661,3,8,4,1.1278690186247062,2,3,1,1,4,1,4,-1,1,-1,1,3.56660000000149
6,R_2Si8iSDiTMldrAB,79,j,2,0,9812,Abortion rights,Increased Gun regulations,-1,-1,3,8,4,1.1278690186247062,2,6,3,0.7233073054223661,-3,-2,1,-1,-2,1,2,-1,1,1,1,9.812
6,R_2Si8iSDiTMldrAB,80,f,1,1,4029.800000000745,Raise the minimum wage,Mandatory trigger warnings,1,-1,3,8,4,1.1278690186247062,2,5,3,0.7233073054223661,3,-2,5,1,3,5,3,5,-5,1,0,4.029800000000745
6,R_2Si8iSDiTMldrAB,81,j,2,0,10168,Bathrooms restricted based on biological sex,Student worker unionization,1,1,-3,4,4,-1.2995012605893355,3,5,4,1.1278690186247062,-3,3,6,6,1,6,1,-6,6,-6,1,10.168
6,R_2Si8iSDiTMldrAB,82,f,1,1,8563.10000000149,Remove police from schools,Raise the minimum wage,1,-1,1,2,4,0.31874559222002574,3,8,4,1.1278690186247062,1,-3,4,-2,-6,4,6,4,-4,-2,0,8.56310000000149
6,R_2Si8iSDiTMldrAB,83,j,2,0,9510.699999999255,Student worker unionization,Hardening schools/Arming teachers,1,1,3,5,4,1.1278690186247062,-3,6,4,-1.2995012605893355,3,-3,-6,-6,1,6,1,6,-6,6,1,9.510699999999256
6,R_2Si8iSDiTMldrAB,84,j,2,0,2557.4000000003725,Increased Gun regulations,Student worker unionization,-1,1,2,6,3,0.7233073054223661,3,5,4,1.1278690186247062,-2,3,5,1,-1,5,1,-5,5,-1,1,2.5574000000003725
6,R_2Si8iSDiTMldrAB,85,f,1,1,2570.5999999996275,Raise the minimum wage,Abolishing fraternities,1,1,3,8,4,1.1278690186247062,1,4,3,0.31874559222002574,3,1,2,2,4,2,4,2,-2,2,0,2.5705999999996276
6,R_2Si8iSDiTMldrAB,86,j,2,0,5130.700000001118,Mandatory trigger warnings,Stop police brutality,1,1,2,5,3,0.7233073054223661,3,8,4,1.1278690186247062,2,3,1,1,3,1,3,-1,1,-1,1,5.130700000001117
6,R_2Si8iSDiTMldrAB,87,j,2,0,1905.4000000003725,Expel students with white nationlist views,Student worker unionization,-1,-1,3,8,4,1.1278690186247062,3,5,4,1.1278690186247062,-3,-3,0,0,-3,0,3,0,0,0,1,1.9054000000003726
6,R_2Si8iSDiTMldrAB,88,f,1,1,1316.199999999255,Dorms determined by gender identity,Abortion rights,1,-1,-2,4,1,-0.8949395473869951,3,8,4,1.1278690186247062,-2,-3,1,-5,-4,1,4,1,-1,-5,0,1.3161999999992549
6,R_2Si8iSDiTMldrAB,89,f,1,1,3787.5999999996275,Increased Gun regulations,Student worker unionization,1,-1,2,6,3,0.7233073054223661,3,5,4,1.1278690186247062,2,-3,5,-1,1,5,1,5,-5,-1,0,3.7875999999996273
6,R_2Si8iSDiTMldrAB,90,j,2,0,1790.699999999255,Increased Gun regulations,Abolishing private prisons,1,1,2,6,3,0.7233073054223661,3,8,4,1.1278690186247062,2,3,1,1,2,1,2,-1,1,-1,1,1.790699999999255
6,R_2Si8iSDiTMldrAB,91,j,2,0,3593.10000000149,Climate change legislation,Mandatory drug tests for welfare recipients,-1,-1,3,8,3,1.1278690186247062,-3,6,3,-1.2995012605893355,-3,3,6,-6,-2,6,2,-6,6,6,1,3.59310000000149
6,R_2Si8iSDiTMldrAB,92,j,2,0,4699.9000000003725,Mandatory vaccinations,Raise the minimum wage,1,1,1,6,3,0.31874559222002574,3,8,4,1.1278690186247062,1,3,2,2,2,2,2,-2,2,-2,1,4.699900000000373
6,R_2Si8iSDiTMldrAB,93,f,1,1,3144.800000000745,Gun-free campus police,Stop police brutality,1,-1,0,4,3,-0.08581612098231453,3,8,4,1.1278690186247062,0,-3,3,-3,-4,3,4,3,-3,-3,0,3.1448000000007452
6,R_2Si8iSDiTMldrAB,94,f,1,1,1231.7000000011176,Bathrooms restricted based on biological sex,Student worker unionization,-1,-1,-3,4,4,-1.2995012605893355,3,5,4,1.1278690186247062,3,-3,6,-6,-1,6,1,6,-6,-6,0,1.2317000000011176
6,R_2Si8iSDiTMldrAB,95,j,2,0,4814.4000000003725,Gun-free campus police,Abolishing private prisons,1,1,0,4,3,-0.08581612098231453,3,8,4,1.1278690186247062,0,3,3,3,4,3,4,-3,3,-3,1,4.814400000000372
6,R_2Si8iSDiTMldrAB,96,j,2,0,2543.800000000745,Remove police from schools,Expel students with white nationlist views,1,1,1,2,4,0.31874559222002574,3,8,4,1.1278690186247062,1,3,2,2,6,2,6,-2,2,-2,1,2.5438000000007452
6,R_2Si8iSDiTMldrAB,97,f,1,1,1235.9000000003725,Bathrooms restricted based on biological sex,Student worker unionization,-1,1,-3,4,4,-1.2995012605893355,3,5,4,1.1278690186247062,3,3,0,-6,-1,0,1,0,0,-6,0,1.2359000000003726
6,R_2Si8iSDiTMldrAB,98,f,1,1,2230.5,Abolishing fraternities,Student worker unionization,1,1,1,4,3,0.31874559222002574,3,5,4,1.1278690186247062,1,3,-2,-2,-1,2,1,-2,2,-2,0,2.2305
6,R_2Si8iSDiTMldrAB,99,f,1,1,4052,Stop police brutality,Ban on research with animals,1,-1,3,8,4,1.1278690186247062,-1,0,3,-0.4903778341846548,3,1,2,4,8,2,8,2,-2,4,0,4.052
6,R_2Si8iSDiTMldrAB,100,f,1,1,8551.400000000373,Mandatory drug tests for welfare recipients,Student worker unionization,-1,1,-3,6,3,-1.2995012605893355,3,5,4,1.1278690186247062,3,3,0,-6,1,0,1,0,0,-6,0,8.551400000000372
1,R_1eEotFgXgjm2k7Z,1,f,1,1,2815.2999999523163,Mandatory trigger warnings,Remove police from schools,-1,1,-2,0,2,-0.6081655365649388,-3,5,2,-1.029203215725281,2,-3,5,1,-5,5,5,5,-5,1,0,2.8152999999523165
1,R_1eEotFgXgjm2k7Z,2,f,1,1,1891.1000000238419,Mandatory drug tests for welfare recipients,Mandatory trigger warnings,1,1,3,6,3,1.4970228592367723,-2,0,2,-0.6081655365649388,3,-2,5,5,6,5,6,5,-5,5,0,1.8911000000238418
1,R_1eEotFgXgjm2k7Z,3,j,2,0,6650.599999904633,Stop police brutality,Gun-free campus police,1,1,3,5,3,1.4970228592367723,-2,3,1,-0.6081655365649388,3,-2,-5,-5,-2,5,2,5,-5,5,1,6.650599999904633
1,R_1eEotFgXgjm2k7Z,4,f,1,1,2761.0999999046326,Black Lives Matter,Raise the minimum wage,-1,1,-2,7,3,-0.6081655365649388,-3,5,4,-1.029203215725281,2,-3,5,1,2,5,2,5,-5,1,0,2.7610999999046326
1,R_1eEotFgXgjm2k7Z,5,j,2,0,4517.699999928474,Affirmative action,Raise the minimum wage,1,1,-2,5,3,-0.6081655365649388,-3,5,4,-1.029203215725281,-2,-3,-1,-1,0,1,0,1,-1,1,1,4.517699999928475
1,R_1eEotFgXgjm2k7Z,6,f,1,1,3312.2000000476837,Ban on research with animals,Mandatory drug tests for welfare recipients,1,-1,2,6,3,1.07598518007643,3,6,3,1.4970228592367723,2,-3,5,-1,0,5,0,5,-5,-1,0,3.312200000047684
1,R_1eEotFgXgjm2k7Z,7,j,2,0,7201.899999976158,Lift COVID lockdowns,Mask mandates,-1,1,3,5,3,1.4970228592367723,-3,3,4,-1.029203215725281,-3,-3,0,-6,-2,0,2,0,0,6,1,7.201899999976158
1,R_1eEotFgXgjm2k7Z,8,j,2,0,5601,Mandatory trigger warnings,Mandatory drug tests for welfare recipients,-1,1,-2,0,2,-0.6081655365649388,3,6,3,1.4970228592367723,2,3,1,5,6,1,6,-1,1,-5,1,5.601
1,R_1eEotFgXgjm2k7Z,9,f,1,1,2373.899999976158,Mandatory drug tests for welfare recipients,Affirmative action,1,1,3,6,3,1.4970228592367723,-2,5,3,-0.6081655365649388,3,-2,5,5,1,5,1,5,-5,5,0,2.373899999976158
1,R_1eEotFgXgjm2k7Z,10,j,2,0,3915.5,Abolishing fraternities,Remove Christopher Columbus statues,1,-1,-2,2,1,-0.6081655365649388,-3,5,2,-1.029203215725281,-2,3,5,-1,3,5,3,-5,5,1,1,3.9155
1,R_1eEotFgXgjm2k7Z,11,f,1,1,3460.7999999523163,Mandatory vaccinations,Mandatory drug tests for welfare recipients,-1,-1,-3,8,4,-1.029203215725281,3,6,3,1.4970228592367723,3,-3,6,-6,2,6,2,6,-6,-6,0,3.4607999999523162
1,R_1eEotFgXgjm2k7Z,12,j,2,0,3350.6999999284744,War on Drugs,Mandatory drug tests for welfare recipients,-1,1,3,7,4,1.4970228592367723,3,6,3,1.4970228592367723,-3,3,6,0,-1,6,1,-6,6,0,1,3.3506999999284743
1,R_1eEotFgXgjm2k7Z,13,j,2,0,4227.200000047684,Raise the minimum wage,Hardening schools/Arming teachers,1,1,-3,5,4,-1.029203215725281,1,1,1,0.6549475009160878,-3,1,4,4,-4,4,4,-4,4,-4,1,4.2272000000476835
1,R_1eEotFgXgjm2k7Z,14,f,1,1,7418.899999976158,Mandatory drug tests for welfare recipients,Abortion rights,1,1,3,6,3,1.4970228592367723,2,1,4,1.07598518007643,3,2,1,1,5,1,5,1,-1,1,0,7.4188999999761585
1,R_1eEotFgXgjm2k7Z,15,j,2,0,2407.5,Legalization of marijuana,Climate change legislation,1,-1,-3,5,3,-1.029203215725281,-2,1,2,-0.6081655365649388,-3,2,5,1,-4,5,4,-5,5,-1,1,2.4075
1,R_1eEotFgXgjm2k7Z,16,j,2,0,3570.899999976158,Stop police brutality,War on Drugs,1,1,3,5,3,1.4970228592367723,3,7,4,1.4970228592367723,3,3,0,0,2,0,2,0,0,0,1,3.570899999976158
1,R_1eEotFgXgjm2k7Z,17,j,2,0,5342.899999976158,Legalization of marijuana,Mask mandates,-1,-1,-3,5,3,-1.029203215725281,-3,3,4,-1.029203215725281,3,3,0,0,-2,0,2,0,0,0,1,5.342899999976158
1,R_1eEotFgXgjm2k7Z,18,j,2,0,6208.399999976158,Raise the minimum wage,Remove public Confederate memorials,-1,-1,-3,5,4,-1.029203215725281,-3,4,2,-1.029203215725281,3,3,0,0,-1,0,1,0,0,0,1,6.208399999976158
1,R_1eEotFgXgjm2k7Z,19,j,2,0,6206.700000047684,Lift COVID lockdowns,Hardening schools/Arming teachers,-1,-1,3,5,3,1.4970228592367723,1,1,1,0.6549475009160878,-3,-1,2,-2,-4,2,4,-2,2,2,1,6.206700000047683
1,R_1eEotFgXgjm2k7Z,20,f,1,1,5439.900000095367,Mandatory drug tests for welfare recipients,Hardening schools/Arming teachers,1,1,3,6,3,1.4970228592367723,1,1,1,0.6549475009160878,3,1,2,2,5,2,5,2,-2,2,0,5.439900000095367
