Subj,SID,Trial,Resp,Response,ChooseLeft,RT,IssueLeft,IssueRight,PosLeft,PosRight,LeftSupport,LeftMoral,LeftFamiliar,LeftSupport_z,LeftMoral_z,LeftSupport_zm,LeftMoral_zm,RightSupport,RightMoral,RightFamiliar,RightSupport_z,RightMoral_z,RightSupport_zm,RightMoral_zm,LeftAdj,RightAdj,LeftAdjz,RightAdjz,ChoiceSupport,ChoiceSupportNaive,ChoiceMoral,ChoiceSupportDist,ChoiceMoralDist,LeftAdjDiff,RightAdjDiff,LeftRDV,LeftDiff_raw,LeftMoral_diff,LeftRMC,ChooseRight,Choice,RTs,RTqtile,RT_mean
1,R_1CmwY0ZuUje7W3E,2,f,1,1,4800.899999976158,Hardening schools/Arming teachers,Ban on ethnic Halloween costumes,-1,-1,-2,7,2,-1.2999098856853415,0.7244651615066339,3.7666666666666666,4.866666666666666,2,6,4,0.5794779008476825,0.3848721170503993,3.7666666666666666,4.866666666666666,2,-2,1.2999098856853415,-0.5794779008476825,4,-4,1,4,1,4,-4,1.879387786533024,-4,1,0.33959304445623456,0,Left,4.800899999976158,5,3.4520742268058444
1,R_1CmwY0ZuUje7W3E,3,f,1,1,5192.300000011921,Mandatory vaccinations,Gun-free campus police,1,1,3,8,4,1.0493248474809385,1.0640582059628683,3.7666666666666666,4.866666666666666,0,0,1,-0.36021599241882957,-1.652686149687008,3.7666666666666666,4.866666666666666,3,0,1.0493248474809385,-0.36021599241882957,3,3,8,3,8,3,-3,1.409540839899768,3,8,2.716744355649876,0,Left,5.192300000011921,5,3.4520742268058444
1,R_1CmwY0ZuUje7W3E,4,f,1,1,5520.5,Ban on research with animals,Defund Planned Parenthood,-1,-1,2,5,1,0.5794779008476825,0.04527907259416475,3.7666666666666666,4.866666666666666,-3,7,4,-1.7697568323185975,0.7244651615066339,3.7666666666666666,4.866666666666666,-2,3,-0.5794779008476825,1.7697568323185975,-5,5,-2,5,2,-5,5,-2.3492347331662797,5,-2,-0.6791860889124691,0,Left,5.5205,5,3.4520742268058444
1,R_1CmwY0ZuUje7W3E,5,j,2,0,3630.900000035763,Defund the police,Recognize Jerusalem as capital of Israel,-1,-1,-2,4,4,-1.2999098856853415,-0.2943139718620698,3.7666666666666666,4.866666666666666,0,0,1,-0.36021599241882957,-1.652686149687008,3.7666666666666666,4.866666666666666,2,-0,1.2999098856853415,0.36021599241882957,-2,2,-4,2,4,2,-2,0.939693893266512,-2,4,1.3583721778249382,1,Right,3.630900000035763,3,3.4520742268058444
1,R_1CmwY0ZuUje7W3E,7,j,2,0,3697.699999988079,Ban on ethnic Halloween costumes,Affirmative action,-1,-1,2,6,4,0.5794779008476825,0.3848721170503993,3.7666666666666666,4.866666666666666,2,5,4,0.5794779008476825,0.04527907259416475,3.7666666666666666,4.866666666666666,-2,-2,-0.5794779008476825,-0.5794779008476825,0,0,-1,0,1,0,0,0,0,1,0.33959304445623456,1,Right,3.697699999988079,3,3.4520742268058444
1,R_1CmwY0ZuUje7W3E,8,f,1,1,3373.899999976158,War on Drugs,Stop police brutality,1,1,2,6,2,0.5794779008476825,0.3848721170503993,3.7666666666666666,4.866666666666666,3,7,4,1.0493248474809385,0.7244651615066339,3.7666666666666666,4.866666666666666,2,3,0.5794779008476825,1.0493248474809385,-1,-1,-1,1,1,-1,1,-0.469846946633256,-1,-1,-0.33959304445623456,0,Left,3.373899999976158,3,3.4520742268058444
1,R_1CmwY0ZuUje7W3E,9,j,2,0,4116.699999988079,Lift COVID lockdowns,Gun-free campus police,-1,-1,1,2,3,0.10963095421442642,-0.9735000607745389,3.7666666666666666,4.866666666666666,0,0,1,-0.36021599241882957,-1.652686149687008,3.7666666666666666,4.866666666666666,-1,-0,-0.10963095421442642,0.36021599241882957,1,-1,-2,1,2,-1,1,-0.469846946633256,1,2,0.6791860889124691,1,Right,4.116699999988079,4,3.4520742268058444
1,R_1CmwY0ZuUje7W3E,10,j,2,0,2547.699999988079,War on Drugs,Climate change legislation,1,1,2,6,2,0.5794779008476825,0.3848721170503993,3.7666666666666666,4.866666666666666,3,8,4,1.0493248474809385,1.0640582059628683,3.7666666666666666,4.866666666666666,2,3,0.5794779008476825,1.0493248474809385,1,1,2,1,2,-1,1,-0.469846946633256,-1,-2,-0.679186088912469,1,Right,2.547699999988079,1,3.4520742268058444
1,R_1CmwY0ZuUje7W3E,11,f,1,1,4456.599999964237,Abortion rights,Lift COVID lockdowns,-1,-1,3,8,4,1.0493248474809385,1.0640582059628683,3.7666666666666666,4.866666666666666,1,2,3,0.10963095421442642,-0.9735000607745389,3.7666666666666666,4.866666666666666,-3,-1,-1.0493248474809385,-0.10963095421442642,-2,2,6,2,6,-2,2,-0.939693893266512,2,6,2.037558266737407,0,Left,4.456599999964237,4,3.4520742268058444
1,R_1CmwY0ZuUje7W3E,12,j,2,0,3064.099999964237,Mandatory trigger warnings,Physician-assisted suicide,1,1,-1,0,1,-0.8300629390520856,-1.652686149687008,3.7666666666666666,4.866666666666666,1,7,3,0.10963095421442642,0.7244651615066339,3.7666666666666666,4.866666666666666,-1,1,-0.8300629390520856,0.10963095421442642,2,2,7,2,7,-2,2,-0.939693893266512,-2,-7,-2.377151311193642,1,Right,3.0640999999642373,2,3.4520742268058444
1,R_1CmwY0ZuUje7W3E,13,j,2,0,3198.699999988079,Black Lives Matter,Abolishing fraternities,-1,-1,3,8,4,1.0493248474809385,1.0640582059628683,3.7666666666666666,4.866666666666666,-2,5,4,-1.2999098856853415,0.04527907259416475,3.7666666666666666,4.866666666666666,-3,2,-1.0493248474809385,1.2999098856853415,5,-5,-3,5,3,-5,5,-2.3492347331662797,5,3,1.0187791333687035,1,Right,3.198699999988079,2,3.4520742268058444
1,R_1CmwY0ZuUje7W3E,14,f,1,1,4091.699999988079,Bathrooms restricted based on biological sex,Lift COVID lockdowns,1,1,-1,3,4,-0.8300629390520856,-0.6339070163183044,3.7666666666666666,4.866666666666666,1,2,3,0.10963095421442642,-0.9735000607745389,3.7666666666666666,4.866666666666666,-1,1,-0.8300629390520856,0.10963095421442642,-2,-2,1,2,1,-2,2,-0.939693893266512,-2,1,0.3395930444562345,0,Left,4.091699999988079,4,3.4520742268058444
1,R_1CmwY0ZuUje7W3E,15,f,1,1,2981.300000011921,Legalization of marijuana,Mandatory trigger warnings,1,1,3,4,4,1.0493248474809385,-0.2943139718620698,3.7666666666666666,4.866666666666666,-1,0,1,-0.8300629390520856,-1.652686149687008,3.7666666666666666,4.866666666666666,3,-1,1.0493248474809385,-0.8300629390520856,4,4,4,4,4,4,-4,1.879387786533024,4,4,1.3583721778249382,0,Left,2.9813000000119207,2,3.4520742268058444
1,R_1CmwY0ZuUje7W3E,16,j,2,0,3396.5,Black Lives Matter,Bathrooms restricted based on biological sex,-1,-1,3,8,4,1.0493248474809385,1.0640582059628683,3.7666666666666666,4.866666666666666,-1,3,4,-0.8300629390520856,-0.6339070163183044,3.7666666666666666,4.866666666666666,-3,1,-1.0493248474809385,0.8300629390520856,4,-4,-5,4,5,-4,4,-1.879387786533024,4,5,1.6979652222811725,1,Right,3.3965,3,3.4520742268058444
1,R_1CmwY0ZuUje7W3E,17,f,1,1,3419.699999988079,Physician-assisted suicide,Mandatory trigger warnings,-1,-1,1,7,3,0.10963095421442642,0.7244651615066339,3.7666666666666666,4.866666666666666,-1,0,1,-0.8300629390520856,-1.652686149687008,3.7666666666666666,4.866666666666666,-1,1,-0.10963095421442642,0.8300629390520856,-2,2,7,2,7,-2,2,-0.939693893266512,2,7,2.377151311193642,0,Left,3.419699999988079,3,3.4520742268058444
1,R_1CmwY0ZuUje7W3E,18,j,2,0,2815.400000035763,Defund the police,Physician-assisted suicide,1,1,-2,4,4,-1.2999098856853415,-0.2943139718620698,3.7666666666666666,4.866666666666666,1,7,3,0.10963095421442642,0.7244651615066339,3.7666666666666666,4.866666666666666,-2,1,-1.2999098856853415,0.10963095421442642,3,3,3,3,3,-3,3,-1.409540839899768,-3,-3,-1.0187791333687037,1,Right,2.815400000035763,2,3.4520742268058444
1,R_1CmwY0ZuUje7W3E,19,f,1,1,1796.9000000357628,Abortion rights,Lift COVID lockdowns,1,1,3,8,4,1.0493248474809385,1.0640582059628683,3.7666666666666666,4.866666666666666,1,2,3,0.10963095421442642,-0.9735000607745389,3.7666666666666666,4.866666666666666,3,1,1.0493248474809385,0.10963095421442642,2,2,6,2,6,2,-2,0.939693893266512,2,6,2.037558266737407,0,Left,1.796900000035763,1,3.4520742268058444
1,R_1CmwY0ZuUje7W3E,20,j,2,0,4890.300000011921,War on Drugs,Defund the police,-1,-1,2,6,2,0.5794779008476825,0.3848721170503993,3.7666666666666666,4.866666666666666,-2,4,4,-1.2999098856853415,-0.2943139718620698,3.7666666666666666,4.866666666666666,-2,2,-0.5794779008476825,1.2999098856853415,4,-4,-2,4,2,-4,4,-1.879387786533024,4,2,0.6791860889124691,1,Right,4.890300000011921,5,3.4520742268058444
1,R_1CmwY0ZuUje7W3E,21,j,2,0,3706.300000011921,Mandatory trigger warnings,Abolishing fraternities,1,1,-1,0,1,-0.8300629390520856,-1.652686149687008,3.7666666666666666,4.866666666666666,-2,5,4,-1.2999098856853415,0.04527907259416475,3.7666666666666666,4.866666666666666,-1,-2,-0.8300629390520856,-1.2999098856853415,-1,-1,5,1,5,1,-1,0.4698469466332559,1,-5,-1.6979652222811727,1,Right,3.706300000011921,3,3.4520742268058444
1,R_1CmwY0ZuUje7W3E,23,j,2,0,3194.599999964237,Lift COVID lockdowns,Affirmative action,-1,-1,1,2,3,0.10963095421442642,-0.9735000607745389,3.7666666666666666,4.866666666666666,2,5,4,0.5794779008476825,0.04527907259416475,3.7666666666666666,4.866666666666666,-1,-2,-0.10963095421442642,-0.5794779008476825,-1,1,3,1,3,1,-1,0.46984694663325605,-1,-3,-1.0187791333687035,1,Right,3.1945999999642374,2,3.4520742268058444
1,R_1CmwY0ZuUje7W3E,24,j,2,0,4766.100000023842,Abolishing fraternities,Mandatory trigger warnings,-1,-1,-2,5,4,-1.2999098856853415,0.04527907259416475,3.7666666666666666,4.866666666666666,-1,0,1,-0.8300629390520856,-1.652686149687008,3.7666666666666666,4.866666666666666,2,1,1.2999098856853415,0.8300629390520856,-1,1,-5,1,5,1,-1,0.4698469466332559,-1,5,1.6979652222811727,1,Right,4.766100000023842,5,3.4520742268058444
1,R_1CmwY0ZuUje7W3E,25,f,1,1,1407.800000011921,Climate change legislation,Mask mandates,1,1,3,8,4,1.0493248474809385,1.0640582059628683,3.7666666666666666,4.866666666666666,3,7,4,1.0493248474809385,0.7244651615066339,3.7666666666666666,4.866666666666666,3,3,1.0493248474809385,1.0493248474809385,0,0,1,0,1,0,0,0,0,1,0.3395930444562344,0,Left,1.4078000000119208,1,3.4520742268058444
1,R_1CmwY0ZuUje7W3E,26,j,2,0,1857,Lift COVID lockdowns,Stop police brutality,1,1,1,2,3,0.10963095421442642,-0.9735000607745389,3.7666666666666666,4.866666666666666,3,7,4,1.0493248474809385,0.7244651615066339,3.7666666666666666,4.866666666666666,1,3,0.10963095421442642,1.0493248474809385,2,2,5,2,5,-2,2,-0.939693893266512,-2,-5,-1.6979652222811727,1,Right,1.857,1,3.4520742268058444
1,R_1CmwY0ZuUje7W3E,27,j,2,0,4775.299999952316,Defund Planned Parenthood,Increased Gun regulations,-1,-1,-3,7,4,-1.7697568323185975,0.7244651615066339,3.7666666666666666,4.866666666666666,3,8,4,1.0493248474809385,1.0640582059628683,3.7666666666666666,4.866666666666666,3,-3,1.7697568323185975,-1.0493248474809385,-6,6,1,6,1,6,-6,2.819081679799536,-6,-1,-0.3395930444562344,1,Right,4.775299999952316,5,3.4520742268058444
1,R_1CmwY0ZuUje7W3E,28,f,1,1,5483.100000023842,Ban on ethnic Halloween costumes,Hardening schools/Arming teachers,1,1,2,6,4,0.5794779008476825,0.3848721170503993,3.7666666666666666,4.866666666666666,-2,7,2,-1.2999098856853415,0.7244651615066339,3.7666666666666666,4.866666666666666,2,-2,0.5794779008476825,-1.2999098856853415,4,4,-1,4,1,4,-4,1.879387786533024,4,-1,-0.33959304445623456,0,Left,5.483100000023842,5,3.4520742268058444
1,R_1CmwY0ZuUje7W3E,29,j,2,0,1714,Abolishing fraternities,Stop police brutality,1,1,-2,5,4,-1.2999098856853415,0.04527907259416475,3.7666666666666666,4.866666666666666,3,7,4,1.0493248474809385,0.7244651615066339,3.7666666666666666,4.866666666666666,-2,3,-1.2999098856853415,1.0493248474809385,5,5,2,5,2,-5,5,-2.3492347331662797,-5,-2,-0.6791860889124691,1,Right,1.714,1,3.4520742268058444
1,R_1CmwY0ZuUje7W3E,30,f,1,1,3950.900000035763,Dorms determined by gender identity,Legalization of marijuana,-1,-1,-3,4,4,-1.7697568323185975,-0.2943139718620698,3.7666666666666666,4.866666666666666,3,4,4,1.0493248474809385,-0.2943139718620698,3.7666666666666666,4.866666666666666,3,-3,1.7697568323185975,-1.0493248474809385,6,-6,0,6,0,6,-6,2.819081679799536,-6,0,0,0,Left,3.950900000035763,4,3.4520742268058444
1,R_1CmwY0ZuUje7W3E,31,j,2,0,3588.199999988079,Allow alt-right speakers on campus,Affirmative action,-1,-1,0,0,1,-0.36021599241882957,-1.652686149687008,3.7666666666666666,4.866666666666666,2,5,4,0.5794779008476825,0.04527907259416475,3.7666666666666666,4.866666666666666,-0,-2,0.36021599241882957,-0.5794779008476825,-2,2,5,2,5,2,-2,0.939693893266512,-2,-5,-1.6979652222811727,1,Right,3.588199999988079,3,3.4520742268058444
1,R_1CmwY0ZuUje7W3E,32,f,1,1,4352.699999988079,Physician-assisted suicide,Dorms determined by gender identity,1,1,1,7,3,0.10963095421442642,0.7244651615066339,3.7666666666666666,4.866666666666666,-3,4,4,-1.7697568323185975,-0.2943139718620698,3.7666666666666666,4.866666666666666,1,-3,0.10963095421442642,-1.7697568323185975,4,4,3,4,3,4,-4,1.879387786533024,4,3,1.0187791333687037,0,Left,4.352699999988079,4,3.4520742268058444
1,R_1CmwY0ZuUje7W3E,33,f,1,1,3162.699999988079,Mandatory trigger warnings,Bathrooms restricted based on biological sex,1,1,-1,0,1,-0.8300629390520856,-1.652686149687008,3.7666666666666666,4.866666666666666,-1,3,4,-0.8300629390520856,-0.6339070163183044,3.7666666666666666,4.866666666666666,-1,-1,-0.8300629390520856,-0.8300629390520856,0,0,-3,0,3,0,0,0,0,-3,-1.0187791333687035,0,Left,3.162699999988079,2,3.4520742268058444
1,R_1CmwY0ZuUje7W3E,34,j,2,0,4236.099999964237,Defund Planned Parenthood,Lift COVID lockdowns,-1,-1,-3,7,4,-1.7697568323185975,0.7244651615066339,3.7666666666666666,4.866666666666666,1,2,3,0.10963095421442642,-0.9735000607745389,3.7666666666666666,4.866666666666666,3,-1,1.7697568323185975,-0.10963095421442642,-4,4,-5,4,5,4,-4,1.879387786533024,-4,5,1.6979652222811727,1,Right,4.236099999964237,4,3.4520742268058444
1,R_1CmwY0ZuUje7W3E,35,f,1,1,4103.600000023842,Ban on research with animals,Defund Planned Parenthood,1,1,2,5,1,0.5794779008476825,0.04527907259416475,3.7666666666666666,4.866666666666666,-3,7,4,-1.7697568323185975,0.7244651615066339,3.7666666666666666,4.866666666666666,2,-3,0.5794779008476825,-1.7697568323185975,5,5,-2,5,2,5,-5,2.3492347331662797,5,-2,-0.6791860889124691,0,Left,4.1036000000238415,4,3.4520742268058444
1,R_1CmwY0ZuUje7W3E,36,f,1,1,4469.699999988079,Bathrooms restricted based on biological sex,Stop police brutality,-1,-1,-1,3,4,-0.8300629390520856,-0.6339070163183044,3.7666666666666666,4.866666666666666,3,7,4,1.0493248474809385,0.7244651615066339,3.7666666666666666,4.866666666666666,1,-3,0.8300629390520856,-1.0493248474809385,4,-4,-4,4,4,4,-4,1.879387786533024,-4,-4,-1.3583721778249382,0,Left,4.469699999988079,5,3.4520742268058444
1,R_1CmwY0ZuUje7W3E,37,f,1,1,4264.699999988079,Gun-free campus police,Dorms determined by gender identity,1,1,0,0,1,-0.36021599241882957,-1.652686149687008,3.7666666666666666,4.866666666666666,-3,4,4,-1.7697568323185975,-0.2943139718620698,3.7666666666666666,4.866666666666666,0,-3,-0.36021599241882957,-1.7697568323185975,3,3,-4,3,4,3,-3,1.409540839899768,3,-4,-1.3583721778249382,0,Left,4.264699999988079,4,3.4520742268058444
1,R_1CmwY0ZuUje7W3E,38,j,2,0,4722.700000047684,Legalization of marijuana,Remove Christopher Columbus statues,-1,-1,3,4,4,1.0493248474809385,-0.2943139718620698,3.7666666666666666,4.866666666666666,2,5,3,0.5794779008476825,0.04527907259416475,3.7666666666666666,4.866666666666666,-3,-2,-1.0493248474809385,-0.5794779008476825,1,-1,1,1,1,-1,1,-0.469846946633256,1,-1,-0.33959304445623456,1,Right,4.722700000047683,5,3.4520742268058444
1,R_1CmwY0ZuUje7W3E,39,f,1,1,3237.600000023842,Legalization of marijuana,Hardening schools/Arming teachers,1,1,3,4,4,1.0493248474809385,-0.2943139718620698,3.7666666666666666,4.866666666666666,-2,7,2,-1.2999098856853415,0.7244651615066339,3.7666666666666666,4.866666666666666,3,-2,1.0493248474809385,-1.2999098856853415,5,5,-3,5,3,5,-5,2.3492347331662797,5,-3,-1.0187791333687037,0,Left,3.237600000023842,3,3.4520742268058444
1,R_1CmwY0ZuUje7W3E,40,j,2,0,1209.3999999761581,Defund Planned Parenthood,Mask mandates,1,1,-3,7,4,-1.7697568323185975,0.7244651615066339,3.7666666666666666,4.866666666666666,3,7,4,1.0493248474809385,0.7244651615066339,3.7666666666666666,4.866666666666666,-3,3,-1.7697568323185975,1.0493248474809385,6,6,0,6,0,-6,6,-2.819081679799536,-6,0,0,1,Right,1.2093999999761582,1,3.4520742268058444
1,R_1CmwY0ZuUje7W3E,41,f,1,1,4075.800000011921,Physician-assisted suicide,Ban on ethnic Halloween costumes,1,1,1,7,3,0.10963095421442642,0.7244651615066339,3.7666666666666666,4.866666666666666,2,6,4,0.5794779008476825,0.3848721170503993,3.7666666666666666,4.866666666666666,1,2,0.10963095421442642,0.5794779008476825,-1,-1,1,1,1,-1,1,-0.46984694663325605,-1,1,0.33959304445623456,0,Left,4.075800000011921,4,3.4520742268058444
1,R_1CmwY0ZuUje7W3E,42,j,2,0,2063.599999964237,Bathrooms restricted based on biological sex,Black Lives Matter,1,1,-1,3,4,-0.8300629390520856,-0.6339070163183044,3.7666666666666666,4.866666666666666,3,8,4,1.0493248474809385,1.0640582059628683,3.7666666666666666,4.866666666666666,-1,3,-0.8300629390520856,1.0493248474809385,4,4,5,4,5,-4,4,-1.879387786533024,-4,-5,-1.6979652222811725,1,Right,2.063599999964237,1,3.4520742268058444
1,R_1CmwY0ZuUje7W3E,43,f,1,1,2273.199999988079,Raise the minimum wage,Detention of migrant children,1,1,-1,0,2,-0.8300629390520856,-1.652686149687008,3.7666666666666666,4.866666666666666,-3,8,2,-1.7697568323185975,1.0640582059628683,3.7666666666666666,4.866666666666666,-1,-3,-0.8300629390520856,-1.7697568323185975,2,2,-8,2,8,2,-2,0.9396938932665119,2,-8,-2.716744355649876,0,Left,2.273199999988079,1,3.4520742268058444
1,R_1CmwY0ZuUje7W3E,44,f,1,1,2075.600000023842,Stop police brutality,Recognize Jerusalem as capital of Israel,1,1,3,7,4,1.0493248474809385,0.7244651615066339,3.7666666666666666,4.866666666666666,0,0,1,-0.36021599241882957,-1.652686149687008,3.7666666666666666,4.866666666666666,3,0,1.0493248474809385,-0.36021599241882957,3,3,7,3,7,3,-3,1.409540839899768,3,7,2.377151311193642,0,Left,2.075600000023842,1,3.4520742268058444
1,R_1CmwY0ZuUje7W3E,45,f,1,1,2976.199999988079,Hardening schools/Arming teachers,Legalization of marijuana,-1,-1,-2,7,2,-1.2999098856853415,0.7244651615066339,3.7666666666666666,4.866666666666666,3,4,4,1.0493248474809385,-0.2943139718620698,3.7666666666666666,4.866666666666666,2,-3,1.2999098856853415,-1.0493248474809385,5,-5,3,5,3,5,-5,2.3492347331662797,-5,3,1.0187791333687037,0,Left,2.9761999999880793,2,3.4520742268058444
1,R_1CmwY0ZuUje7W3E,46,f,1,1,2712.5,Physician-assisted suicide,Ban on ethnic Halloween costumes,-1,-1,1,7,3,0.10963095421442642,0.7244651615066339,3.7666666666666666,4.866666666666666,2,6,4,0.5794779008476825,0.3848721170503993,3.7666666666666666,4.866666666666666,-1,-2,-0.10963095421442642,-0.5794779008476825,1,-1,1,1,1,1,-1,0.46984694663325605,-1,1,0.33959304445623456,0,Left,2.7125,2,3.4520742268058444
1,R_1CmwY0ZuUje7W3E,47,j,2,0,1949.6000000238419,Mask mandates,Defund Planned Parenthood,-1,-1,3,7,4,1.0493248474809385,0.7244651615066339,3.7666666666666666,4.866666666666666,-3,7,4,-1.7697568323185975,0.7244651615066339,3.7666666666666666,4.866666666666666,-3,3,-1.0493248474809385,1.7697568323185975,6,-6,0,6,0,-6,6,-2.819081679799536,6,0,0,1,Right,1.9496000000238418,1,3.4520742268058444
1,R_1CmwY0ZuUje7W3E,48,j,2,0,2942.400000035763,Legalization of marijuana,Physician-assisted suicide,-1,-1,3,4,4,1.0493248474809385,-0.2943139718620698,3.7666666666666666,4.866666666666666,1,7,3,0.10963095421442642,0.7244651615066339,3.7666666666666666,4.866666666666666,-3,-1,-1.0493248474809385,-0.10963095421442642,2,-2,3,2,3,-2,2,-0.939693893266512,2,-3,-1.0187791333687037,1,Right,2.9424000000357626,2,3.4520742268058444
1,R_1CmwY0ZuUje7W3E,49,f,1,1,2930.599999964237,Affirmative action,Ban on ethnic Halloween costumes,1,1,2,5,4,0.5794779008476825,0.04527907259416475,3.7666666666666666,4.866666666666666,2,6,4,0.5794779008476825,0.3848721170503993,3.7666666666666666,4.866666666666666,2,2,0.5794779008476825,0.5794779008476825,0,0,-1,0,1,0,0,0,0,-1,-0.33959304445623456,0,Left,2.930599999964237,2,3.4520742268058444
1,R_1CmwY0ZuUje7W3E,50,j,2,0,3226.099999964237,Legalization of marijuana,Mandatory trigger warnings,-1,-1,3,4,4,1.0493248474809385,-0.2943139718620698,3.7666666666666666,4.866666666666666,-1,0,1,-0.8300629390520856,-1.652686149687008,3.7666666666666666,4.866666666666666,-3,1,-1.0493248474809385,0.8300629390520856,4,-4,-4,4,4,-4,4,-1.879387786533024,4,4,1.3583721778249382,1,Right,3.2260999999642372,3,3.4520742268058444
1,R_1CmwY0ZuUje7W3E,51,f,1,1,2850.100000023842,Raise the minimum wage,Ban on ethnic Halloween costumes,1,1,-1,0,2,-0.8300629390520856,-1.652686149687008,3.7666666666666666,4.866666666666666,2,6,4,0.5794779008476825,0.3848721170503993,3.7666666666666666,4.866666666666666,-1,2,-0.8300629390520856,0.5794779008476825,-3,-3,-6,3,6,-3,3,-1.4095408398997682,-3,-6,-2.0375582667374075,0,Left,2.8501000000238417,2,3.4520742268058444
1,R_1CmwY0ZuUje7W3E,52,j,2,0,3168.100000023842,Physician-assisted suicide,Hardening schools/Arming teachers,-1,-1,1,7,3,0.10963095421442642,0.7244651615066339,3.7666666666666666,4.866666666666666,-2,7,2,-1.2999098856853415,0.7244651615066339,3.7666666666666666,4.866666666666666,-1,2,-0.10963095421442642,1.2999098856853415,3,-3,0,3,0,-3,3,-1.409540839899768,3,0,0,1,Right,3.1681000000238417,2,3.4520742268058444
1,R_1CmwY0ZuUje7W3E,53,f,1,1,2784.800000011921,Legalization of marijuana,Dorms determined by gender identity,1,1,3,4,4,1.0493248474809385,-0.2943139718620698,3.7666666666666666,4.866666666666666,-3,4,4,-1.7697568323185975,-0.2943139718620698,3.7666666666666666,4.866666666666666,3,-3,1.0493248474809385,-1.7697568323185975,6,6,0,6,0,6,-6,2.819081679799536,6,0,0,0,Left,2.784800000011921,2,3.4520742268058444
1,R_1CmwY0ZuUje7W3E,54,f,1,1,3511.300000011921,Mandatory trigger warnings,Defund Planned Parenthood,1,1,-1,0,1,-0.8300629390520856,-1.652686149687008,3.7666666666666666,4.866666666666666,-3,7,4,-1.7697568323185975,0.7244651615066339,3.7666666666666666,4.866666666666666,-1,-3,-0.8300629390520856,-1.7697568323185975,2,2,-7,2,7,2,-2,0.9396938932665119,2,-7,-2.377151311193642,0,Left,3.511300000011921,3,3.4520742268058444
1,R_1CmwY0ZuUje7W3E,55,j,2,0,2401.399999976158,Bathrooms restricted based on biological sex,Affirmative action,1,1,-1,3,4,-0.8300629390520856,-0.6339070163183044,3.7666666666666666,4.866666666666666,2,5,4,0.5794779008476825,0.04527907259416475,3.7666666666666666,4.866666666666666,-1,2,-0.8300629390520856,0.5794779008476825,3,3,2,3,2,-3,3,-1.4095408398997682,-3,-2,-0.6791860889124691,1,Right,2.401399999976158,1,3.4520742268058444
1,R_1CmwY0ZuUje7W3E,56,f,1,1,4156.099999964237,Defund the police,Physician-assisted suicide,-1,-1,-2,4,4,-1.2999098856853415,-0.2943139718620698,3.7666666666666666,4.866666666666666,1,7,3,0.10963095421442642,0.7244651615066339,3.7666666666666666,4.866666666666666,2,-1,1.2999098856853415,-0.10963095421442642,3,-3,-3,3,3,3,-3,1.409540839899768,-3,-3,-1.0187791333687037,0,Left,4.156099999964237,4,3.4520742268058444
1,R_1CmwY0ZuUje7W3E,57,f,1,1,4888.800000011921,Recognize Jerusalem as capital of Israel,Stop police brutality,-1,-1,0,0,1,-0.36021599241882957,-1.652686149687008,3.7666666666666666,4.866666666666666,3,7,4,1.0493248474809385,0.7244651615066339,3.7666666666666666,4.866666666666666,-0,-3,0.36021599241882957,-1.0493248474809385,3,-3,-7,3,7,3,-3,1.409540839899768,-3,-7,-2.377151311193642,0,Left,4.888800000011921,5,3.4520742268058444
1,R_1CmwY0ZuUje7W3E,58,j,2,0,4015.100000023842,Detention of migrant children,Ban on research with animals,1,1,-3,8,2,-1.7697568323185975,1.0640582059628683,3.7666666666666666,4.866666666666666,2,5,1,0.5794779008476825,0.04527907259416475,3.7666666666666666,4.866666666666666,-3,2,-1.7697568323185975,0.5794779008476825,5,5,-3,5,3,-5,5,-2.3492347331662797,-5,3,1.0187791333687035,1,Right,4.015100000023842,4,3.4520742268058444
1,R_1CmwY0ZuUje7W3E,59,f,1,1,2011,Ban on research with animals,Abolishing fraternities,-1,-1,2,5,1,0.5794779008476825,0.04527907259416475,3.7666666666666666,4.866666666666666,-2,5,4,-1.2999098856853415,0.04527907259416475,3.7666666666666666,4.866666666666666,-2,2,-0.5794779008476825,1.2999098856853415,-4,4,0,4,0,-4,4,-1.879387786533024,4,0,0,0,Left,2.011,1,3.4520742268058444
1,R_1CmwY0ZuUje7W3E,60,f,1,1,3310.300000011921,Raise the minimum wage,Ban on ethnic Halloween costumes,-1,-1,-1,0,2,-0.8300629390520856,-1.652686149687008,3.7666666666666666,4.866666666666666,2,6,4,0.5794779008476825,0.3848721170503993,3.7666666666666666,4.866666666666666,1,-2,0.8300629390520856,-0.5794779008476825,3,-3,-6,3,6,3,-3,1.4095408398997682,-3,-6,-2.0375582667374075,0,Left,3.310300000011921,3,3.4520742268058444
1,R_1CmwY0ZuUje7W3E,61,j,2,0,3288,Mask mandates,Detention of migrant children,-1,-1,3,7,4,1.0493248474809385,0.7244651615066339,3.7666666666666666,4.866666666666666,-3,8,2,-1.7697568323185975,1.0640582059628683,3.7666666666666666,4.866666666666666,-3,3,-1.0493248474809385,1.7697568323185975,6,-6,1,6,1,-6,6,-2.819081679799536,6,-1,-0.3395930444562344,1,Right,3.288,3,3.4520742268058444
1,R_1CmwY0ZuUje7W3E,62,j,2,0,4507.400000035763,Stop police brutality,Abolishing fraternities,-1,-1,3,7,4,1.0493248474809385,0.7244651615066339,3.7666666666666666,4.866666666666666,-2,5,4,-1.2999098856853415,0.04527907259416475,3.7666666666666666,4.866666666666666,-3,2,-1.0493248474809385,1.2999098856853415,5,-5,-2,5,2,-5,5,-2.3492347331662797,5,2,0.6791860889124691,1,Right,4.507400000035763,5,3.4520742268058444
1,R_1CmwY0ZuUje7W3E,63,j,2,0,4482.300000011921,Defund Planned Parenthood,Mandatory trigger warnings,-1,-1,-3,7,4,-1.7697568323185975,0.7244651615066339,3.7666666666666666,4.866666666666666,-1,0,1,-0.8300629390520856,-1.652686149687008,3.7666666666666666,4.866666666666666,3,1,1.7697568323185975,0.8300629390520856,-2,2,-7,2,7,2,-2,0.9396938932665119,-2,7,2.377151311193642,1,Right,4.482300000011921,5,3.4520742268058444
1,R_1CmwY0ZuUje7W3E,64,j,2,0,2723.599999964237,Hardening schools/Arming teachers,Gun-free campus police,-1,-1,-2,7,2,-1.2999098856853415,0.7244651615066339,3.7666666666666666,4.866666666666666,0,0,1,-0.36021599241882957,-1.652686149687008,3.7666666666666666,4.866666666666666,2,-0,1.2999098856853415,0.36021599241882957,-2,2,-7,2,7,2,-2,0.939693893266512,-2,7,2.377151311193642,1,Right,2.7235999999642373,2,3.4520742268058444
1,R_1CmwY0ZuUje7W3E,65,f,1,1,4841.5,Abolishing fraternities,Ban on research with animals,1,1,-2,5,4,-1.2999098856853415,0.04527907259416475,3.7666666666666666,4.866666666666666,2,5,1,0.5794779008476825,0.04527907259416475,3.7666666666666666,4.866666666666666,-2,2,-1.2999098856853415,0.5794779008476825,-4,-4,0,4,0,-4,4,-1.879387786533024,-4,0,0,0,Left,4.8415,5,3.4520742268058444
1,R_1CmwY0ZuUje7W3E,66,f,1,1,3947.900000035763,Defund the police,Recognize Jerusalem as capital of Israel,1,1,-2,4,4,-1.2999098856853415,-0.2943139718620698,3.7666666666666666,4.866666666666666,0,0,1,-0.36021599241882957,-1.652686149687008,3.7666666666666666,4.866666666666666,-2,0,-1.2999098856853415,-0.36021599241882957,-2,-2,4,2,4,-2,2,-0.939693893266512,-2,4,1.3583721778249382,0,Left,3.9479000000357627,4,3.4520742268058444
1,R_1CmwY0ZuUje7W3E,67,j,2,0,4377.300000011921,Detention of migrant children,Ban on research with animals,-1,-1,-3,8,2,-1.7697568323185975,1.0640582059628683,3.7666666666666666,4.866666666666666,2,5,1,0.5794779008476825,0.04527907259416475,3.7666666666666666,4.866666666666666,3,-2,1.7697568323185975,-0.5794779008476825,-5,5,-3,5,3,5,-5,2.3492347331662797,-5,3,1.0187791333687035,1,Right,4.377300000011921,4,3.4520742268058444
1,R_1CmwY0ZuUje7W3E,68,j,2,0,1877.699999988079,Affirmative action,Lift COVID lockdowns,1,1,2,5,4,0.5794779008476825,0.04527907259416475,3.7666666666666666,4.866666666666666,1,2,3,0.10963095421442642,-0.9735000607745389,3.7666666666666666,4.866666666666666,2,1,0.5794779008476825,0.10963095421442642,-1,-1,-3,1,3,1,-1,0.46984694663325605,1,3,1.0187791333687035,1,Right,1.877699999988079,1,3.4520742268058444
1,R_1CmwY0ZuUje7W3E,69,j,2,0,3569.100000023842,Lift COVID lockdowns,Bathrooms restricted based on biological sex,-1,-1,1,2,3,0.10963095421442642,-0.9735000607745389,3.7666666666666666,4.866666666666666,-1,3,4,-0.8300629390520856,-0.6339070163183044,3.7666666666666666,4.866666666666666,-1,1,-0.10963095421442642,0.8300629390520856,2,-2,1,2,1,-2,2,-0.939693893266512,2,-1,-0.3395930444562345,1,Right,3.569100000023842,3,3.4520742268058444
1,R_1CmwY0ZuUje7W3E,70,j,2,0,3397.100000023842,Hardening schools/Arming teachers,Gun-free campus police,1,1,-2,7,2,-1.2999098856853415,0.7244651615066339,3.7666666666666666,4.866666666666666,0,0,1,-0.36021599241882957,-1.652686149687008,3.7666666666666666,4.866666666666666,-2,0,-1.2999098856853415,-0.36021599241882957,2,2,-7,2,7,-2,2,-0.939693893266512,-2,7,2.377151311193642,1,Right,3.397100000023842,3,3.4520742268058444
1,R_1CmwY0ZuUje7W3E,71,f,1,1,4485.599999964237,Bathrooms restricted based on biological sex,Affirmative action,-1,-1,-1,3,4,-0.8300629390520856,-0.6339070163183044,3.7666666666666666,4.866666666666666,2,5,4,0.5794779008476825,0.04527907259416475,3.7666666666666666,4.866666666666666,1,-2,0.8300629390520856,-0.5794779008476825,3,-3,-2,3,2,3,-3,1.4095408398997682,-3,-2,-0.6791860889124691,0,Left,4.485599999964237,5,3.4520742268058444
1,R_1CmwY0ZuUje7W3E,72,j,2,0,4206,Lift COVID lockdowns,Detention of migrant children,-1,-1,1,2,3,0.10963095421442642,-0.9735000607745389,3.7666666666666666,4.866666666666666,-3,8,2,-1.7697568323185975,1.0640582059628683,3.7666666666666666,4.866666666666666,-1,3,-0.10963095421442642,1.7697568323185975,4,-4,6,4,6,-4,4,-1.879387786533024,4,-6,-2.037558266737407,1,Right,4.206,4,3.4520742268058444
1,R_1CmwY0ZuUje7W3E,73,f,1,1,4332.5,Defund the police,Legalization of marijuana,-1,-1,-2,4,4,-1.2999098856853415,-0.2943139718620698,3.7666666666666666,4.866666666666666,3,4,4,1.0493248474809385,-0.2943139718620698,3.7666666666666666,4.866666666666666,2,-3,1.2999098856853415,-1.0493248474809385,5,-5,0,5,0,5,-5,2.3492347331662797,-5,0,0,0,Left,4.3325,4,3.4520742268058444
1,R_1CmwY0ZuUje7W3E,74,f,1,1,4576.800000011921,Dorms determined by gender identity,Remove public Confederate memorials,-1,-1,-3,4,4,-1.7697568323185975,-0.2943139718620698,3.7666666666666666,4.866666666666666,2,6,4,0.5794779008476825,0.3848721170503993,3.7666666666666666,4.866666666666666,3,-2,1.7697568323185975,-0.5794779008476825,5,-5,-2,5,2,5,-5,2.3492347331662797,-5,-2,-0.6791860889124691,0,Left,4.576800000011921,5,3.4520742268058444
1,R_1CmwY0ZuUje7W3E,75,j,2,0,5404.5,Stop police brutality,Lift COVID lockdowns,-1,-1,3,7,4,1.0493248474809385,0.7244651615066339,3.7666666666666666,4.866666666666666,1,2,3,0.10963095421442642,-0.9735000607745389,3.7666666666666666,4.866666666666666,-3,-1,-1.0493248474809385,-0.10963095421442642,2,-2,-5,2,5,-2,2,-0.939693893266512,2,5,1.6979652222811727,1,Right,5.4045,5,3.4520742268058444
1,R_1CmwY0ZuUje7W3E,76,f,1,1,3932.5,War on Drugs,Defund the police,1,1,2,6,2,0.5794779008476825,0.3848721170503993,3.7666666666666666,4.866666666666666,-2,4,4,-1.2999098856853415,-0.2943139718620698,3.7666666666666666,4.866666666666666,2,-2,0.5794779008476825,-1.2999098856853415,4,4,2,4,2,4,-4,1.879387786533024,4,2,0.6791860889124691,0,Left,3.9325,4,3.4520742268058444
1,R_1CmwY0ZuUje7W3E,77,j,2,0,5459.199999988079,Gun-free campus police,Dorms determined by gender identity,-1,-1,0,0,1,-0.36021599241882957,-1.652686149687008,3.7666666666666666,4.866666666666666,-3,4,4,-1.7697568323185975,-0.2943139718620698,3.7666666666666666,4.866666666666666,-0,3,0.36021599241882957,1.7697568323185975,3,-3,4,3,4,-3,3,-1.409540839899768,3,-4,-1.3583721778249382,1,Right,5.459199999988079,5,3.4520742268058444
1,R_1CmwY0ZuUje7W3E,78,f,1,1,5459.300000011921,Mask mandates,Climate change legislation,-1,-1,3,7,4,1.0493248474809385,0.7244651615066339,3.7666666666666666,4.866666666666666,3,8,4,1.0493248474809385,1.0640582059628683,3.7666666666666666,4.866666666666666,-3,-3,-1.0493248474809385,-1.0493248474809385,0,0,-1,0,1,0,0,0,0,-1,-0.3395930444562344,0,Left,5.459300000011921,5,3.4520742268058444
1,R_1CmwY0ZuUje7W3E,79,f,1,1,2639.5,War on Drugs,Climate change legislation,-1,-1,2,6,2,0.5794779008476825,0.3848721170503993,3.7666666666666666,4.866666666666666,3,8,4,1.0493248474809385,1.0640582059628683,3.7666666666666666,4.866666666666666,-2,-3,-0.5794779008476825,-1.0493248474809385,1,-1,-2,1,2,1,-1,0.469846946633256,-1,-2,-0.679186088912469,0,Left,2.6395,2,3.4520742268058444
1,R_1CmwY0ZuUje7W3E,80,j,2,0,3495.699999988079,Gun-free campus police,Raise the minimum wage,-1,-1,0,0,1,-0.36021599241882957,-1.652686149687008,3.7666666666666666,4.866666666666666,-1,0,2,-0.8300629390520856,-1.652686149687008,3.7666666666666666,4.866666666666666,-0,1,0.36021599241882957,0.8300629390520856,1,-1,0,1,0,-1,1,-0.46984694663325605,1,0,0,1,Right,3.495699999988079,3,3.4520742268058444
1,R_1CmwY0ZuUje7W3E,81,j,2,0,4371.700000047684,Detention of migrant children,Mask mandates,1,1,-3,8,2,-1.7697568323185975,1.0640582059628683,3.7666666666666666,4.866666666666666,3,7,4,1.0493248474809385,0.7244651615066339,3.7666666666666666,4.866666666666666,-3,3,-1.7697568323185975,1.0493248474809385,6,6,-1,6,1,-6,6,-2.819081679799536,-6,1,0.3395930444562344,1,Right,4.371700000047683,4,3.4520742268058444
1,R_1CmwY0ZuUje7W3E,82,j,2,0,3286.899999976158,Lift COVID lockdowns,Abolishing fraternities,1,1,1,2,3,0.10963095421442642,-0.9735000607745389,3.7666666666666666,4.866666666666666,-2,5,4,-1.2999098856853415,0.04527907259416475,3.7666666666666666,4.866666666666666,1,-2,0.10963095421442642,-1.2999098856853415,-3,-3,3,3,3,3,-3,1.409540839899768,3,-3,-1.0187791333687035,1,Right,3.2868999999761583,3,3.4520742268058444
1,R_1CmwY0ZuUje7W3E,83,j,2,0,2337.400000035763,Detention of migrant children,Mandatory training on sexual consent,1,1,-3,8,2,-1.7697568323185975,1.0640582059628683,3.7666666666666666,4.866666666666666,3,8,4,1.0493248474809385,1.0640582059628683,3.7666666666666666,4.866666666666666,-3,3,-1.7697568323185975,1.0493248474809385,6,6,0,6,0,-6,6,-2.819081679799536,-6,0,0,1,Right,2.3374000000357626,1,3.4520742268058444
1,R_1CmwY0ZuUje7W3E,84,f,1,1,2247.600000023842,Affirmative action,Allow alt-right speakers on campus,1,1,2,5,4,0.5794779008476825,0.04527907259416475,3.7666666666666666,4.866666666666666,0,0,1,-0.36021599241882957,-1.652686149687008,3.7666666666666666,4.866666666666666,2,0,0.5794779008476825,-0.36021599241882957,2,2,5,2,5,2,-2,0.939693893266512,2,5,1.6979652222811727,0,Left,2.2476000000238416,1,3.4520742268058444
1,R_1CmwY0ZuUje7W3E,85,j,2,0,3815.400000035763,Mandatory vaccinations,Gun-free campus police,-1,-1,3,8,4,1.0493248474809385,1.0640582059628683,3.7666666666666666,4.866666666666666,0,0,1,-0.36021599241882957,-1.652686149687008,3.7666666666666666,4.866666666666666,-3,-0,-1.0493248474809385,0.36021599241882957,3,-3,-8,3,8,-3,3,-1.409540839899768,3,8,2.716744355649876,1,Right,3.815400000035763,4,3.4520742268058444
1,R_1CmwY0ZuUje7W3E,86,j,2,0,3726.7000000476837,Raise the minimum wage,Gun-free campus police,1,1,-1,0,2,-0.8300629390520856,-1.652686149687008,3.7666666666666666,4.866666666666666,0,0,1,-0.36021599241882957,-1.652686149687008,3.7666666666666666,4.866666666666666,-1,0,-0.8300629390520856,-0.36021599241882957,1,1,0,1,0,-1,1,-0.46984694663325605,-1,0,0,1,Right,3.7267000000476838,3,3.4520742268058444
1,R_1CmwY0ZuUje7W3E,87,f,1,1,3089.699999988079,Defund the police,Legalization of marijuana,1,1,-2,4,4,-1.2999098856853415,-0.2943139718620698,3.7666666666666666,4.866666666666666,3,4,4,1.0493248474809385,-0.2943139718620698,3.7666666666666666,4.866666666666666,-2,3,-1.2999098856853415,1.0493248474809385,-5,-5,0,5,0,-5,5,-2.3492347331662797,-5,0,0,0,Left,3.089699999988079,2,3.4520742268058444
1,R_1CmwY0ZuUje7W3E,88,f,1,1,1045.199999988079,Legalization of marijuana,Physician-assisted suicide,1,1,3,4,4,1.0493248474809385,-0.2943139718620698,3.7666666666666666,4.866666666666666,1,7,3,0.10963095421442642,0.7244651615066339,3.7666666666666666,4.866666666666666,3,1,1.0493248474809385,0.10963095421442642,2,2,-3,2,3,2,-2,0.939693893266512,2,-3,-1.0187791333687037,0,Left,1.045199999988079,1,3.4520742268058444
1,R_1CmwY0ZuUje7W3E,89,j,2,0,1668.5,Abolishing fraternities,Black Lives Matter,1,1,-2,5,4,-1.2999098856853415,0.04527907259416475,3.7666666666666666,4.866666666666666,3,8,4,1.0493248474809385,1.0640582059628683,3.7666666666666666,4.866666666666666,-2,3,-1.2999098856853415,1.0493248474809385,5,5,3,5,3,-5,5,-2.3492347331662797,-5,-3,-1.0187791333687035,1,Right,1.6685,1,3.4520742268058444
1,R_1CmwY0ZuUje7W3E,90,j,2,0,3282.699999988079,Hardening schools/Arming teachers,Physician-assisted suicide,1,1,-2,7,2,-1.2999098856853415,0.7244651615066339,3.7666666666666666,4.866666666666666,1,7,3,0.10963095421442642,0.7244651615066339,3.7666666666666666,4.866666666666666,-2,1,-1.2999098856853415,0.10963095421442642,3,3,0,3,0,-3,3,-1.409540839899768,-3,0,0,1,Right,3.282699999988079,3,3.4520742268058444
1,R_1CmwY0ZuUje7W3E,91,j,2,0,1877.6000000238419,Defund Planned Parenthood,Increased Gun regulations,1,1,-3,7,4,-1.7697568323185975,0.7244651615066339,3.7666666666666666,4.866666666666666,3,8,4,1.0493248474809385,1.0640582059628683,3.7666666666666666,4.866666666666666,-3,3,-1.7697568323185975,1.0493248474809385,6,6,1,6,1,-6,6,-2.819081679799536,-6,-1,-0.3395930444562344,1,Right,1.8776000000238418,1,3.4520742268058444
1,R_1CmwY0ZuUje7W3E,92,j,2,0,2549.399999976158,Lift COVID lockdowns,Gun-free campus police,1,1,1,2,3,0.10963095421442642,-0.9735000607745389,3.7666666666666666,4.866666666666666,0,0,1,-0.36021599241882957,-1.652686149687008,3.7666666666666666,4.866666666666666,1,0,0.10963095421442642,-0.36021599241882957,-1,-1,-2,1,2,1,-1,0.469846946633256,1,2,0.6791860889124691,1,Right,2.549399999976158,2,3.4520742268058444
1,R_1CmwY0ZuUje7W3E,93,f,1,1,2199.800000011921,Detention of migrant children,Raise the minimum wage,-1,-1,-3,8,2,-1.7697568323185975,1.0640582059628683,3.7666666666666666,4.866666666666666,-1,0,2,-0.8300629390520856,-1.652686149687008,3.7666666666666666,4.866666666666666,3,1,1.7697568323185975,0.8300629390520856,2,-2,8,2,8,2,-2,0.9396938932665119,-2,8,2.716744355649876,0,Left,2.199800000011921,1,3.4520742268058444
1,R_1CmwY0ZuUje7W3E,94,j,2,0,2926,Bathrooms restricted based on biological sex,Stop police brutality,1,1,-1,3,4,-0.8300629390520856,-0.6339070163183044,3.7666666666666666,4.866666666666666,3,7,4,1.0493248474809385,0.7244651615066339,3.7666666666666666,4.866666666666666,-1,3,-0.8300629390520856,1.0493248474809385,4,4,4,4,4,-4,4,-1.879387786533024,-4,-4,-1.3583721778249382,1,Right,2.926,2,3.4520742268058444
1,R_1CmwY0ZuUje7W3E,95,f,1,1,1774.0999999642372,Legalization of marijuana,Remove Christopher Columbus statues,1,1,3,4,4,1.0493248474809385,-0.2943139718620698,3.7666666666666666,4.866666666666666,2,5,3,0.5794779008476825,0.04527907259416475,3.7666666666666666,4.866666666666666,3,2,1.0493248474809385,0.5794779008476825,1,1,-1,1,1,1,-1,0.469846946633256,1,-1,-0.33959304445623456,0,Left,1.7740999999642373,1,3.4520742268058444
1,R_1CmwY0ZuUje7W3E,96,j,2,0,3421.800000011921,Dorms determined by gender identity,Remove public Confederate memorials,1,1,-3,4,4,-1.7697568323185975,-0.2943139718620698,3.7666666666666666,4.866666666666666,2,6,4,0.5794779008476825,0.3848721170503993,3.7666666666666666,4.866666666666666,-3,2,-1.7697568323185975,0.5794779008476825,5,5,2,5,2,-5,5,-2.3492347331662797,-5,-2,-0.6791860889124691,1,Right,3.421800000011921,3,3.4520742268058444
1,R_1CmwY0ZuUje7W3E,97,f,1,1,3051.5,Bathrooms restricted based on biological sex,Mandatory trigger warnings,-1,-1,-1,3,4,-0.8300629390520856,-0.6339070163183044,3.7666666666666666,4.866666666666666,-1,0,1,-0.8300629390520856,-1.652686149687008,3.7666666666666666,4.866666666666666,1,1,0.8300629390520856,0.8300629390520856,0,0,3,0,3,0,0,0,0,3,1.0187791333687035,0,Left,3.0515,2,3.4520742268058444
1,R_1CmwY0ZuUje7W3E,98,f,1,1,4859,Physician-assisted suicide,Dorms determined by gender identity,-1,-1,1,7,3,0.10963095421442642,0.7244651615066339,3.7666666666666666,4.866666666666666,-3,4,4,-1.7697568323185975,-0.2943139718620698,3.7666666666666666,4.866666666666666,-1,3,-0.10963095421442642,1.7697568323185975,-4,4,3,4,3,-4,4,-1.879387786533024,4,3,1.0187791333687037,0,Left,4.859,5,3.4520742268058444
1,R_1CmwY0ZuUje7W3E,99,f,1,1,3971,Lift COVID lockdowns,Abolishing fraternities,-1,-1,1,2,3,0.10963095421442642,-0.9735000607745389,3.7666666666666666,4.866666666666666,-2,5,4,-1.2999098856853415,0.04527907259416475,3.7666666666666666,4.866666666666666,-1,2,-0.10963095421442642,1.2999098856853415,-3,3,-3,3,3,-3,3,-1.409540839899768,3,-3,-1.0187791333687035,0,Left,3.971,4,3.4520742268058444
1,R_1CmwY0ZuUje7W3E,100,f,1,1,2828.800000011921,Lift COVID lockdowns,Detention of migrant children,1,1,1,2,3,0.10963095421442642,-0.9735000607745389,3.7666666666666666,4.866666666666666,-3,8,2,-1.7697568323185975,1.0640582059628683,3.7666666666666666,4.866666666666666,1,-3,0.10963095421442642,-1.7697568323185975,4,4,-6,4,6,4,-4,1.879387786533024,4,-6,-2.037558266737407,0,Left,2.828800000011921,2,3.4520742268058444
12,R_AnTjlb8XLooWJfH,1,f,1,1,5836.5,Legalization of marijuana,Hardening schools/Arming teachers,-1,-1,3,5,3,1.0316041666584055,-0.07566974125488125,3.58974358974359,5.153846153846154,-2,6,1,-1.108425753537223,0.4161835769018458,3.58974358974359,5.153846153846154,-3,2,-1.0316041666584055,1.108425753537223,-5,5,-1,5,1,-5,5,-2.1400299201956283,5,-1,-0.49185331815672706,0,Left,5.8365,5,3.503739795917151
12,R_AnTjlb8XLooWJfH,2,j,2,0,4620.799999952316,Student worker unionization,Ban on research with animals,-1,-1,3,5,2,1.0316041666584055,-0.07566974125488125,3.58974358974359,5.153846153846154,-1,4,1,-0.6804197694980973,-0.5675230594116083,3.58974358974359,5.153846153846154,-3,1,-1.0316041666584055,0.6804197694980973,4,-4,-1,4,1,-4,4,-1.7120239361565028,4,1,0.49185331815672706,1,Right,4.620799999952316,5,3.503739795917151
12,R_AnTjlb8XLooWJfH,4,f,1,1,5096.699999988079,Student worker unionization,Mandatory trigger warnings,1,1,3,5,2,1.0316041666584055,-0.07566974125488125,3.58974358974359,5.153846153846154,1,4,1,0.1755921985801541,-0.5675230594116083,3.58974358974359,5.153846153846154,3,1,1.0316041666584055,0.1755921985801541,2,2,1,2,1,2,-2,0.8560119680782514,2,1,0.49185331815672706,0,Left,5.096699999988079,5,3.503739795917151
12,R_AnTjlb8XLooWJfH,5,j,2,0,4620.699999988079,Remove police from schools,Ban on research with animals,-1,-1,2,4,1,0.6035981826192798,-0.5675230594116083,3.58974358974359,5.153846153846154,-1,4,1,-0.6804197694980973,-0.5675230594116083,3.58974358974359,5.153846153846154,-2,1,-0.6035981826192798,0.6804197694980973,3,-3,0,3,0,-3,3,-1.2840179521173771,3,0,0,1,Right,4.620699999988079,5,3.503739795917151
12,R_AnTjlb8XLooWJfH,6,j,2,0,2850.300000011921,Abortion rights,Black Lives Matter,1,1,3,7,3,1.0316041666584055,0.9080368950585729,3.58974358974359,5.153846153846154,3,6,4,1.0316041666584055,0.4161835769018458,3.58974358974359,5.153846153846154,3,3,1.0316041666584055,1.0316041666584055,0,0,-1,0,1,0,0,0,0,1,0.49185331815672706,1,Right,2.850300000011921,2,3.503739795917151
12,R_AnTjlb8XLooWJfH,7,j,2,0,4070.5,Gun-free campus police,Abolishing private prisons,1,1,2,5,3,0.6035981826192798,-0.07566974125488125,3.58974358974359,5.153846153846154,2,6,1,0.6035981826192798,0.4161835769018458,3.58974358974359,5.153846153846154,2,2,0.6035981826192798,0.6035981826192798,0,0,1,0,1,0,0,0,0,-1,-0.49185331815672706,1,Right,4.0705,4,3.503739795917151
12,R_AnTjlb8XLooWJfH,8,f,1,1,4626.699999988079,Increased Gun regulations,Detention of migrant children,1,1,3,6,3,1.0316041666584055,0.4161835769018458,3.58974358974359,5.153846153846154,-3,7,2,-1.5364317375763488,0.9080368950585729,3.58974358974359,5.153846153846154,3,-3,1.0316041666584055,-1.5364317375763488,6,6,-1,6,1,6,-6,2.5680359042347543,6,-1,-0.49185331815672706,0,Left,4.626699999988079,5,3.503739795917151
12,R_AnTjlb8XLooWJfH,9,j,2,0,4198.900000035763,Mandatory training on sexual consent,Student worker unionization,1,1,3,7,3,1.0316041666584055,0.9080368950585729,3.58974358974359,5.153846153846154,3,5,2,1.0316041666584055,-0.07566974125488125,3.58974358974359,5.153846153846154,3,3,1.0316041666584055,1.0316041666584055,0,0,-2,0,2,0,0,0,0,2,0.9837066363134541,1,Right,4.198900000035763,4,3.503739795917151
12,R_AnTjlb8XLooWJfH,10,f,1,1,3643.5,Student worker unionization,Mandatory training on sexual consent,-1,-1,3,5,2,1.0316041666584055,-0.07566974125488125,3.58974358974359,5.153846153846154,3,7,3,1.0316041666584055,0.9080368950585729,3.58974358974359,5.153846153846154,-3,-3,-1.0316041666584055,-1.0316041666584055,0,0,-2,0,2,0,0,0,0,-2,-0.9837066363134541,0,Left,3.6435,3,3.503739795917151
12,R_AnTjlb8XLooWJfH,11,f,1,1,3331,Physician-assisted suicide,Allow alt-right speakers on campus,1,1,2,5,2,0.6035981826192798,-0.07566974125488125,3.58974358974359,5.153846153846154,0,2,1,-0.25241378545897164,-1.5512296957250624,3.58974358974359,5.153846153846154,2,0,0.6035981826192798,-0.25241378545897164,2,2,3,2,3,2,-2,0.8560119680782514,2,3,1.4755599544701812,0,Left,3.331,3,3.503739795917151
12,R_AnTjlb8XLooWJfH,12,f,1,1,4435.699999988079,Remove Christopher Columbus statues,Raise the minimum wage,-1,-1,2,6,1,0.6035981826192798,0.4161835769018458,3.58974358974359,5.153846153846154,3,8,3,1.0316041666584055,1.3998902132153,3.58974358974359,5.153846153846154,-2,-3,-0.6035981826192798,-1.0316041666584055,1,-1,-2,1,2,1,-1,0.4280059840391257,-1,-2,-0.9837066363134541,0,Left,4.4356999999880795,5,3.503739795917151
12,R_AnTjlb8XLooWJfH,13,j,2,0,4712.900000035763,War on Drugs,Remove public Confederate memorials,-1,-1,-3,6,1,-1.5364317375763488,0.4161835769018458,3.58974358974359,5.153846153846154,3,7,3,1.0316041666584055,0.9080368950585729,3.58974358974359,5.153846153846154,3,-3,1.5364317375763488,-1.0316041666584055,-6,6,1,6,1,6,-6,2.5680359042347543,-6,-1,-0.49185331815672706,1,Right,4.712900000035763,5,3.503739795917151
12,R_AnTjlb8XLooWJfH,14,j,2,0,5053.400000035763,Raise the minimum wage,Lift COVID lockdowns,-1,-1,3,8,3,1.0316041666584055,1.3998902132153,3.58974358974359,5.153846153846154,-2,2,2,-1.108425753537223,-1.5512296957250624,3.58974358974359,5.153846153846154,-3,2,-1.0316041666584055,1.108425753537223,5,-5,-6,5,6,-5,5,-2.1400299201956283,5,6,2.9511199089403624,1,Right,5.053400000035762,5,3.503739795917151
12,R_AnTjlb8XLooWJfH,15,j,2,0,2983.699999988079,Black Lives Matter,Lift COVID lockdowns,-1,-1,3,6,4,1.0316041666584055,0.4161835769018458,3.58974358974359,5.153846153846154,-2,2,2,-1.108425753537223,-1.5512296957250624,3.58974358974359,5.153846153846154,-3,2,-1.0316041666584055,1.108425753537223,5,-5,-4,5,4,-5,5,-2.1400299201956283,5,4,1.9674132726269082,1,Right,2.983699999988079,2,3.503739795917151
12,R_AnTjlb8XLooWJfH,16,j,2,0,3658.699999988079,Dorms determined by gender identity,Physician-assisted suicide,1,1,-2,5,1,-1.108425753537223,-0.07566974125488125,3.58974358974359,5.153846153846154,2,5,2,0.6035981826192798,-0.07566974125488125,3.58974358974359,5.153846153846154,-2,2,-1.108425753537223,0.6035981826192798,4,4,0,4,0,-4,4,-1.7120239361565028,-4,0,0,1,Right,3.658699999988079,3,3.503739795917151
12,R_AnTjlb8XLooWJfH,17,f,1,1,2727.5,Allow alt-right speakers on campus,Black Lives Matter,-1,-1,0,2,1,-0.25241378545897164,-1.5512296957250624,3.58974358974359,5.153846153846154,3,6,4,1.0316041666584055,0.4161835769018458,3.58974358974359,5.153846153846154,-0,-3,0.25241378545897164,-1.0316041666584055,3,-3,-4,3,4,3,-3,1.2840179521173771,-3,-4,-1.9674132726269082,0,Left,2.7275,2,3.503739795917151
12,R_AnTjlb8XLooWJfH,18,f,1,1,3328.900000035763,Gun-free campus police,Abolishing private prisons,-1,-1,2,5,3,0.6035981826192798,-0.07566974125488125,3.58974358974359,5.153846153846154,2,6,1,0.6035981826192798,0.4161835769018458,3.58974358974359,5.153846153846154,-2,-2,-0.6035981826192798,-0.6035981826192798,0,0,-1,0,1,0,0,0,0,-1,-0.49185331815672706,0,Left,3.328900000035763,3,3.503739795917151
12,R_AnTjlb8XLooWJfH,19,f,1,1,3868.599999964237,Gun-free campus police,Defund Planned Parenthood,-1,-1,2,5,3,0.6035981826192798,-0.07566974125488125,3.58974358974359,5.153846153846154,-3,7,1,-1.5364317375763488,0.9080368950585729,3.58974358974359,5.153846153846154,-2,3,-0.6035981826192798,1.5364317375763488,-5,5,-2,5,2,-5,5,-2.1400299201956283,5,-2,-0.9837066363134541,0,Left,3.8685999999642373,4,3.503739795917151
12,R_AnTjlb8XLooWJfH,20,j,2,0,4217.399999976158,Mask mandates,Expel students with white nationlist views,1,1,3,7,4,1.0316041666584055,0.9080368950585729,3.58974358974359,5.153846153846154,0,0,1,-0.25241378545897164,-2.5349363320385168,3.58974358974359,5.153846153846154,3,0,1.0316041666584055,-0.25241378545897164,-3,-3,-7,3,7,3,-3,1.2840179521173771,3,7,3.44297322709709,1,Right,4.217399999976158,5,3.503739795917151
12,R_AnTjlb8XLooWJfH,21,j,2,0,3859.599999964237,Increased Gun regulations,Detention of migrant children,-1,-1,3,6,3,1.0316041666584055,0.4161835769018458,3.58974358974359,5.153846153846154,-3,7,2,-1.5364317375763488,0.9080368950585729,3.58974358974359,5.153846153846154,-3,3,-1.0316041666584055,1.5364317375763488,6,-6,1,6,1,-6,6,-2.5680359042347543,6,-1,-0.49185331815672706,1,Right,3.8595999999642374,4,3.503739795917151
12,R_AnTjlb8XLooWJfH,22,j,2,0,3746.699999988079,Stop police brutality,U.S. drone strikes in Afghanistan,-1,-1,3,8,3,1.0316041666584055,1.3998902132153,3.58974358974359,5.153846153846154,-2,5,1,-1.108425753537223,-0.07566974125488125,3.58974358974359,5.153846153846154,-3,2,-1.0316041666584055,1.108425753537223,5,-5,-3,5,3,-5,5,-2.1400299201956283,5,3,1.4755599544701812,1,Right,3.746699999988079,3,3.503739795917151
12,R_AnTjlb8XLooWJfH,23,f,1,1,2620.199999988079,Black Lives Matter,Allow alt-right speakers on campus,1,1,3,6,4,1.0316041666584055,0.4161835769018458,3.58974358974359,5.153846153846154,0,2,1,-0.25241378545897164,-1.5512296957250624,3.58974358974359,5.153846153846154,3,0,1.0316041666584055,-0.25241378545897164,3,3,4,3,4,3,-3,1.2840179521173771,3,4,1.9674132726269082,0,Left,2.620199999988079,1,3.503739795917151
12,R_AnTjlb8XLooWJfH,24,j,2,0,3541.899999976158,Tuition increases,Student worker unionization,1,1,-3,5,1,-1.5364317375763488,-0.07566974125488125,3.58974358974359,5.153846153846154,3,5,2,1.0316041666584055,-0.07566974125488125,3.58974358974359,5.153846153846154,-3,3,-1.5364317375763488,1.0316041666584055,6,6,0,6,0,-6,6,-2.5680359042347543,-6,0,0,1,Right,3.5418999999761582,3,3.503739795917151
12,R_AnTjlb8XLooWJfH,25,j,2,0,3547.100000023842,Tuition increases,Abolishing private prisons,1,1,-3,5,1,-1.5364317375763488,-0.07566974125488125,3.58974358974359,5.153846153846154,2,6,1,0.6035981826192798,0.4161835769018458,3.58974358974359,5.153846153846154,-3,2,-1.5364317375763488,0.6035981826192798,5,5,1,5,1,-5,5,-2.1400299201956283,-5,-1,-0.49185331815672706,1,Right,3.5471000000238417,3,3.503739795917151
12,R_AnTjlb8XLooWJfH,26,f,1,1,3856.899999976158,Raise the minimum wage,Remove Christopher Columbus statues,1,1,3,8,3,1.0316041666584055,1.3998902132153,3.58974358974359,5.153846153846154,2,6,1,0.6035981826192798,0.4161835769018458,3.58974358974359,5.153846153846154,3,2,1.0316041666584055,0.6035981826192798,1,1,2,1,2,1,-1,0.4280059840391257,1,2,0.9837066363134541,0,Left,3.856899999976158,4,3.503739795917151
12,R_AnTjlb8XLooWJfH,27,f,1,1,3199.5,Tuition increases,Abolishing private prisons,-1,-1,-3,5,1,-1.5364317375763488,-0.07566974125488125,3.58974358974359,5.153846153846154,2,6,1,0.6035981826192798,0.4161835769018458,3.58974358974359,5.153846153846154,3,-2,1.5364317375763488,-0.6035981826192798,5,-5,-1,5,1,5,-5,2.1400299201956283,-5,-1,-0.49185331815672706,0,Left,3.1995,2,3.503739795917151
12,R_AnTjlb8XLooWJfH,28,f,1,1,4217.900000035763,Increased Gun regulations,Dorms determined by gender identity,1,1,3,6,3,1.0316041666584055,0.4161835769018458,3.58974358974359,5.153846153846154,-2,5,1,-1.108425753537223,-0.07566974125488125,3.58974358974359,5.153846153846154,3,-2,1.0316041666584055,-1.108425753537223,5,5,1,5,1,5,-5,2.1400299201956283,5,1,0.49185331815672706,0,Left,4.217900000035763,5,3.503739795917151
12,R_AnTjlb8XLooWJfH,29,j,2,0,3535.599999964237,Physician-assisted suicide,Dorms determined by gender identity,-1,-1,2,5,2,0.6035981826192798,-0.07566974125488125,3.58974358974359,5.153846153846154,-2,5,1,-1.108425753537223,-0.07566974125488125,3.58974358974359,5.153846153846154,-2,2,-0.6035981826192798,1.108425753537223,4,-4,0,4,0,-4,4,-1.7120239361565028,4,0,0,1,Right,3.535599999964237,3,3.503739795917151
12,R_AnTjlb8XLooWJfH,30,j,2,0,4454.700000047684,Remove police from schools,Mandatory trigger warnings,-1,-1,2,4,1,0.6035981826192798,-0.5675230594116083,3.58974358974359,5.153846153846154,1,4,1,0.1755921985801541,-0.5675230594116083,3.58974358974359,5.153846153846154,-2,-1,-0.6035981826192798,-0.1755921985801541,1,-1,0,1,0,-1,1,-0.4280059840391257,1,0,0,1,Right,4.4547000000476835,5,3.503739795917151
12,R_AnTjlb8XLooWJfH,31,j,2,0,3928,Ban on research with animals,Remove police from schools,1,1,-1,4,1,-0.6804197694980973,-0.5675230594116083,3.58974358974359,5.153846153846154,2,4,1,0.6035981826192798,-0.5675230594116083,3.58974358974359,5.153846153846154,-1,2,-0.6804197694980973,0.6035981826192798,3,3,0,3,0,-3,3,-1.2840179521173771,-3,0,0,1,Right,3.928,4,3.503739795917151
12,R_AnTjlb8XLooWJfH,32,j,2,0,2675.199999988079,Allow alt-right speakers on campus,Stop police brutality,1,1,0,2,1,-0.25241378545897164,-1.5512296957250624,3.58974358974359,5.153846153846154,3,8,3,1.0316041666584055,1.3998902132153,3.58974358974359,5.153846153846154,0,3,-0.25241378545897164,1.0316041666584055,3,3,6,3,6,-3,3,-1.2840179521173771,-3,-6,-2.9511199089403624,1,Right,2.675199999988079,1,3.503739795917151
12,R_AnTjlb8XLooWJfH,33,f,1,1,3163.7999999523163,Abortion rights,Mandatory trigger warnings,1,1,3,7,3,1.0316041666584055,0.9080368950585729,3.58974358974359,5.153846153846154,1,4,1,0.1755921985801541,-0.5675230594116083,3.58974358974359,5.153846153846154,3,1,1.0316041666584055,0.1755921985801541,2,2,3,2,3,2,-2,0.8560119680782514,2,3,1.4755599544701812,0,Left,3.163799999952316,2,3.503739795917151
12,R_AnTjlb8XLooWJfH,34,j,2,0,3179.100000023842,"Boycott, Divest, and Sanction Israel",Physician-assisted suicide,1,1,1,2,1,0.1755921985801541,-1.5512296957250624,3.58974358974359,5.153846153846154,2,5,2,0.6035981826192798,-0.07566974125488125,3.58974358974359,5.153846153846154,1,2,0.1755921985801541,0.6035981826192798,1,1,3,1,3,-1,1,-0.4280059840391257,-1,-3,-1.4755599544701812,1,Right,3.179100000023842,2,3.503739795917151
12,R_AnTjlb8XLooWJfH,35,j,2,0,4207.5,Stop police brutality,Detention of migrant children,-1,-1,3,8,3,1.0316041666584055,1.3998902132153,3.58974358974359,5.153846153846154,-3,7,2,-1.5364317375763488,0.9080368950585729,3.58974358974359,5.153846153846154,-3,3,-1.0316041666584055,1.5364317375763488,6,-6,-1,6,1,-6,6,-2.5680359042347543,6,1,0.49185331815672706,1,Right,4.2075,5,3.503739795917151
12,R_AnTjlb8XLooWJfH,36,f,1,1,5151.800000011921,Gun-free campus police,Abortion rights,-1,-1,2,5,3,0.6035981826192798,-0.07566974125488125,3.58974358974359,5.153846153846154,3,7,3,1.0316041666584055,0.9080368950585729,3.58974358974359,5.153846153846154,-2,-3,-0.6035981826192798,-1.0316041666584055,1,-1,-2,1,2,1,-1,0.4280059840391257,-1,-2,-0.9837066363134541,0,Left,5.151800000011921,5,3.503739795917151
12,R_AnTjlb8XLooWJfH,37,j,2,0,4271.600000023842,Remove public Confederate memorials,War on Drugs,1,1,3,7,3,1.0316041666584055,0.9080368950585729,3.58974358974359,5.153846153846154,-3,6,1,-1.5364317375763488,0.4161835769018458,3.58974358974359,5.153846153846154,3,-3,1.0316041666584055,-1.5364317375763488,-6,-6,-1,6,1,6,-6,2.5680359042347543,6,1,0.49185331815672706,1,Right,4.271600000023842,5,3.503739795917151
12,R_AnTjlb8XLooWJfH,39,f,1,1,2404.099999964237,War on Drugs,Student worker unionization,-1,-1,-3,6,1,-1.5364317375763488,0.4161835769018458,3.58974358974359,5.153846153846154,3,5,2,1.0316041666584055,-0.07566974125488125,3.58974358974359,5.153846153846154,3,-3,1.5364317375763488,-1.0316041666584055,6,-6,1,6,1,6,-6,2.5680359042347543,-6,1,0.49185331815672706,0,Left,2.404099999964237,1,3.503739795917151
12,R_AnTjlb8XLooWJfH,40,f,1,1,3092.699999988079,Student worker unionization,Ban on research with animals,1,1,3,5,2,1.0316041666584055,-0.07566974125488125,3.58974358974359,5.153846153846154,-1,4,1,-0.6804197694980973,-0.5675230594116083,3.58974358974359,5.153846153846154,3,-1,1.0316041666584055,-0.6804197694980973,4,4,1,4,1,4,-4,1.7120239361565028,4,1,0.49185331815672706,0,Left,3.092699999988079,2,3.503739795917151
12,R_AnTjlb8XLooWJfH,41,j,2,0,3922.199999988079,Black Lives Matter,Abortion rights,-1,-1,3,6,4,1.0316041666584055,0.4161835769018458,3.58974358974359,5.153846153846154,3,7,3,1.0316041666584055,0.9080368950585729,3.58974358974359,5.153846153846154,-3,-3,-1.0316041666584055,-1.0316041666584055,0,0,1,0,1,0,0,0,0,-1,-0.49185331815672706,1,Right,3.922199999988079,4,3.503739795917151
12,R_AnTjlb8XLooWJfH,42,j,2,0,3114,Physician-assisted suicide,Legalization of marijuana,1,1,2,5,2,0.6035981826192798,-0.07566974125488125,3.58974358974359,5.153846153846154,3,5,3,1.0316041666584055,-0.07566974125488125,3.58974358974359,5.153846153846154,2,3,0.6035981826192798,1.0316041666584055,1,1,0,1,0,-1,1,-0.4280059840391257,-1,0,0,1,Right,3.114,2,3.503739795917151
12,R_AnTjlb8XLooWJfH,43,f,1,1,4105.699999988079,Allow alt-right speakers on campus,Physician-assisted suicide,-1,-1,0,2,1,-0.25241378545897164,-1.5512296957250624,3.58974358974359,5.153846153846154,2,5,2,0.6035981826192798,-0.07566974125488125,3.58974358974359,5.153846153846154,-0,-2,0.25241378545897164,-0.6035981826192798,2,-2,-3,2,3,2,-2,0.8560119680782514,-2,-3,-1.4755599544701812,0,Left,4.105699999988079,4,3.503739795917151
12,R_AnTjlb8XLooWJfH,44,f,1,1,3758.5,Mask mandates,Remove police from schools,-1,-1,3,7,4,1.0316041666584055,0.9080368950585729,3.58974358974359,5.153846153846154,2,4,1,0.6035981826192798,-0.5675230594116083,3.58974358974359,5.153846153846154,-3,-2,-1.0316041666584055,-0.6035981826192798,-1,1,3,1,3,-1,1,-0.4280059840391257,1,3,1.4755599544701812,0,Left,3.7585,3,3.503739795917151
12,R_AnTjlb8XLooWJfH,45,f,1,1,2587,Remove Christopher Columbus statues,Build southern border wall,1,1,2,6,1,0.6035981826192798,0.4161835769018458,3.58974358974359,5.153846153846154,-3,6,2,-1.5364317375763488,0.4161835769018458,3.58974358974359,5.153846153846154,2,-3,0.6035981826192798,-1.5364317375763488,5,5,0,5,0,5,-5,2.1400299201956283,5,0,0,0,Left,2.587,1,3.503739795917151
12,R_AnTjlb8XLooWJfH,46,f,1,1,4171.699999988079,Raise the minimum wage,Black Lives Matter,-1,-1,3,8,3,1.0316041666584055,1.3998902132153,3.58974358974359,5.153846153846154,3,6,4,1.0316041666584055,0.4161835769018458,3.58974358974359,5.153846153846154,-3,-3,-1.0316041666584055,-1.0316041666584055,0,0,2,0,2,0,0,0,0,2,0.9837066363134541,0,Left,4.171699999988079,4,3.503739795917151
12,R_AnTjlb8XLooWJfH,47,f,1,1,5207.599999964237,Stop police brutality,Detention of migrant children,1,1,3,8,3,1.0316041666584055,1.3998902132153,3.58974358974359,5.153846153846154,-3,7,2,-1.5364317375763488,0.9080368950585729,3.58974358974359,5.153846153846154,3,-3,1.0316041666584055,-1.5364317375763488,6,6,1,6,1,6,-6,2.5680359042347543,6,1,0.49185331815672706,0,Left,5.207599999964237,5,3.503739795917151
12,R_AnTjlb8XLooWJfH,48,j,2,0,4025,Mandatory trigger warnings,Student worker unionization,-1,-1,1,4,1,0.1755921985801541,-0.5675230594116083,3.58974358974359,5.153846153846154,3,5,2,1.0316041666584055,-0.07566974125488125,3.58974358974359,5.153846153846154,-1,-3,-0.1755921985801541,-1.0316041666584055,-2,2,1,2,1,2,-2,0.8560119680782514,-2,-1,-0.49185331815672706,1,Right,4.025,4,3.503739795917151
12,R_AnTjlb8XLooWJfH,49,j,2,0,3881.900000035763,Abortion rights,Mandatory trigger warnings,-1,-1,3,7,3,1.0316041666584055,0.9080368950585729,3.58974358974359,5.153846153846154,1,4,1,0.1755921985801541,-0.5675230594116083,3.58974358974359,5.153846153846154,-3,-1,-1.0316041666584055,-0.1755921985801541,2,-2,-3,2,3,-2,2,-0.8560119680782514,2,3,1.4755599544701812,1,Right,3.881900000035763,4,3.503739795917151
12,R_AnTjlb8XLooWJfH,50,f,1,1,3353.5,Ban on ethnic Halloween costumes,Raise the minimum wage,-1,-1,1,3,1,0.1755921985801541,-1.0593763775683354,3.58974358974359,5.153846153846154,3,8,3,1.0316041666584055,1.3998902132153,3.58974358974359,5.153846153846154,-1,-3,-0.1755921985801541,-1.0316041666584055,2,-2,-5,2,5,2,-2,0.8560119680782514,-2,-5,-2.4592665907836353,0,Left,3.3535,3,3.503739795917151
12,R_AnTjlb8XLooWJfH,51,j,2,0,2281.400000035763,Raise the minimum wage,Black Lives Matter,1,1,3,8,3,1.0316041666584055,1.3998902132153,3.58974358974359,5.153846153846154,3,6,4,1.0316041666584055,0.4161835769018458,3.58974358974359,5.153846153846154,3,3,1.0316041666584055,1.0316041666584055,0,0,-2,0,2,0,0,0,0,2,0.9837066363134541,1,Right,2.2814000000357626,1,3.503739795917151
12,R_AnTjlb8XLooWJfH,52,j,2,0,3031.900000035763,Lift COVID lockdowns,Physician-assisted suicide,-1,-1,-2,2,2,-1.108425753537223,-1.5512296957250624,3.58974358974359,5.153846153846154,2,5,2,0.6035981826192798,-0.07566974125488125,3.58974358974359,5.153846153846154,2,-2,1.108425753537223,-0.6035981826192798,-4,4,3,4,3,4,-4,1.7120239361565028,-4,-3,-1.4755599544701812,1,Right,3.0319000000357628,2,3.503739795917151
12,R_AnTjlb8XLooWJfH,53,f,1,1,2103.699999988079,Tuition increases,Student worker unionization,-1,-1,-3,5,1,-1.5364317375763488,-0.07566974125488125,3.58974358974359,5.153846153846154,3,5,2,1.0316041666584055,-0.07566974125488125,3.58974358974359,5.153846153846154,3,-3,1.5364317375763488,-1.0316041666584055,6,-6,0,6,0,6,-6,2.5680359042347543,-6,0,0,0,Left,2.103699999988079,1,3.503739795917151
12,R_AnTjlb8XLooWJfH,54,f,1,1,2293.300000011921,Legalization of marijuana,Recognize Jerusalem as capital of Israel,1,1,3,5,3,1.0316041666584055,-0.07566974125488125,3.58974358974359,5.153846153846154,0,0,1,-0.25241378545897164,-2.5349363320385168,3.58974358974359,5.153846153846154,3,0,1.0316041666584055,-0.25241378545897164,3,3,5,3,5,3,-3,1.2840179521173771,3,5,2.4592665907836353,0,Left,2.293300000011921,1,3.503739795917151
12,R_AnTjlb8XLooWJfH,55,j,2,0,2343.699999988079,Mandatory trigger warnings,Remove police from schools,1,1,1,4,1,0.1755921985801541,-0.5675230594116083,3.58974358974359,5.153846153846154,2,4,1,0.6035981826192798,-0.5675230594116083,3.58974358974359,5.153846153846154,1,2,0.1755921985801541,0.6035981826192798,1,1,0,1,0,-1,1,-0.4280059840391257,-1,0,0,1,Right,2.343699999988079,1,3.503739795917151
12,R_AnTjlb8XLooWJfH,56,f,1,1,2828.300000011921,Hardening schools/Arming teachers,Remove Christopher Columbus statues,-1,-1,-2,6,1,-1.108425753537223,0.4161835769018458,3.58974358974359,5.153846153846154,2,6,1,0.6035981826192798,0.4161835769018458,3.58974358974359,5.153846153846154,2,-2,1.108425753537223,-0.6035981826192798,4,-4,0,4,0,4,-4,1.7120239361565028,-4,0,0,0,Left,2.8283000000119207,2,3.503739795917151
12,R_AnTjlb8XLooWJfH,57,f,1,1,2487.599999964237,Physician-assisted suicide,Lift COVID lockdowns,1,1,2,5,2,0.6035981826192798,-0.07566974125488125,3.58974358974359,5.153846153846154,-2,2,2,-1.108425753537223,-1.5512296957250624,3.58974358974359,5.153846153846154,2,-2,0.6035981826192798,-1.108425753537223,4,4,3,4,3,4,-4,1.7120239361565028,4,3,1.4755599544701812,0,Left,2.487599999964237,1,3.503739795917151
12,R_AnTjlb8XLooWJfH,58,f,1,1,3539.5,On campus concealed carry,Remove public Confederate memorials,-1,-1,-2,6,1,-1.108425753537223,0.4161835769018458,3.58974358974359,5.153846153846154,3,7,3,1.0316041666584055,0.9080368950585729,3.58974358974359,5.153846153846154,2,-3,1.108425753537223,-1.0316041666584055,5,-5,-1,5,1,5,-5,2.1400299201956283,-5,-1,-0.49185331815672706,0,Left,3.5395,3,3.503739795917151
12,R_AnTjlb8XLooWJfH,59,f,1,1,3381.399999976158,Student worker unionization,Remove police from schools,-1,-1,3,5,2,1.0316041666584055,-0.07566974125488125,3.58974358974359,5.153846153846154,2,4,1,0.6035981826192798,-0.5675230594116083,3.58974358974359,5.153846153846154,-3,-2,-1.0316041666584055,-0.6035981826192798,-1,1,1,1,1,-1,1,-0.4280059840391257,1,1,0.49185331815672706,0,Left,3.381399999976158,3,3.503739795917151
12,R_AnTjlb8XLooWJfH,60,f,1,1,2334,Remove Christopher Columbus statues,Ban on research with animals,1,1,2,6,1,0.6035981826192798,0.4161835769018458,3.58974358974359,5.153846153846154,-1,4,1,-0.6804197694980973,-0.5675230594116083,3.58974358974359,5.153846153846154,2,-1,0.6035981826192798,-0.6804197694980973,3,3,2,3,2,3,-3,1.2840179521173771,3,2,0.9837066363134541,0,Left,2.334,1,3.503739795917151
12,R_AnTjlb8XLooWJfH,61,j,2,0,3245.899999976158,Climate change legislation,Tuition increases,-1,-1,3,7,1,1.0316041666584055,0.9080368950585729,3.58974358974359,5.153846153846154,-3,5,1,-1.5364317375763488,-0.07566974125488125,3.58974358974359,5.153846153846154,-3,3,-1.0316041666584055,1.5364317375763488,6,-6,-2,6,2,-6,6,-2.5680359042347543,6,2,0.9837066363134541,1,Right,3.245899999976158,3,3.503739795917151
12,R_AnTjlb8XLooWJfH,62,j,2,0,3171.800000011921,Hardening schools/Arming teachers,Remove Christopher Columbus statues,1,1,-2,6,1,-1.108425753537223,0.4161835769018458,3.58974358974359,5.153846153846154,2,6,1,0.6035981826192798,0.4161835769018458,3.58974358974359,5.153846153846154,-2,2,-1.108425753537223,0.6035981826192798,4,4,0,4,0,-4,4,-1.7120239361565028,-4,0,0,1,Right,3.171800000011921,2,3.503739795917151
12,R_AnTjlb8XLooWJfH,63,j,2,0,3473.199999988079,Ban on research with animals,Climate change legislation,1,1,-1,4,1,-0.6804197694980973,-0.5675230594116083,3.58974358974359,5.153846153846154,3,7,1,1.0316041666584055,0.9080368950585729,3.58974358974359,5.153846153846154,-1,3,-0.6804197694980973,1.0316041666584055,4,4,3,4,3,-4,4,-1.7120239361565028,-4,-3,-1.4755599544701812,1,Right,3.473199999988079,3,3.503739795917151
12,R_AnTjlb8XLooWJfH,64,j,2,0,2907.899999976158,Mask mandates,Remove police from schools,1,1,3,7,4,1.0316041666584055,0.9080368950585729,3.58974358974359,5.153846153846154,2,4,1,0.6035981826192798,-0.5675230594116083,3.58974358974359,5.153846153846154,3,2,1.0316041666584055,0.6035981826192798,-1,-1,-3,1,3,1,-1,0.4280059840391257,1,3,1.4755599544701812,1,Right,2.9078999999761583,2,3.503739795917151
12,R_AnTjlb8XLooWJfH,65,j,2,0,3041.5,On campus concealed carry,Remove public Confederate memorials,1,1,-2,6,1,-1.108425753537223,0.4161835769018458,3.58974358974359,5.153846153846154,3,7,3,1.0316041666584055,0.9080368950585729,3.58974358974359,5.153846153846154,-2,3,-1.108425753537223,1.0316041666584055,5,5,1,5,1,-5,5,-2.1400299201956283,-5,-1,-0.49185331815672706,1,Right,3.0415,2,3.503739795917151
12,R_AnTjlb8XLooWJfH,66,j,2,0,5084.199999988079,Expel students with white nationlist views,Remove police from schools,-1,-1,0,0,1,-0.25241378545897164,-2.5349363320385168,3.58974358974359,5.153846153846154,2,4,1,0.6035981826192798,-0.5675230594116083,3.58974358974359,5.153846153846154,-0,-2,0.25241378545897164,-0.6035981826192798,-2,2,4,2,4,2,-2,0.8560119680782514,-2,-4,-1.9674132726269085,1,Right,5.084199999988079,5,3.503739795917151
12,R_AnTjlb8XLooWJfH,67,j,2,0,1867.5,Black Lives Matter,Ban on ethnic Halloween costumes,-1,-1,3,6,4,1.0316041666584055,0.4161835769018458,3.58974358974359,5.153846153846154,1,3,1,0.1755921985801541,-1.0593763775683354,3.58974358974359,5.153846153846154,-3,-1,-1.0316041666584055,-0.1755921985801541,2,-2,-3,2,3,-2,2,-0.8560119680782514,2,3,1.4755599544701812,1,Right,1.8675,1,3.503739795917151
12,R_AnTjlb8XLooWJfH,68,j,2,0,2592.199999988079,Lift COVID lockdowns,Raise the minimum wage,1,1,-2,2,2,-1.108425753537223,-1.5512296957250624,3.58974358974359,5.153846153846154,3,8,3,1.0316041666584055,1.3998902132153,3.58974358974359,5.153846153846154,-2,3,-1.108425753537223,1.0316041666584055,5,5,6,5,6,-5,5,-2.1400299201956283,-5,-6,-2.9511199089403624,1,Right,2.592199999988079,1,3.503739795917151
12,R_AnTjlb8XLooWJfH,69,j,2,0,3863,Abolishing private prisons,Increased Gun regulations,1,1,2,6,1,0.6035981826192798,0.4161835769018458,3.58974358974359,5.153846153846154,3,6,3,1.0316041666584055,0.4161835769018458,3.58974358974359,5.153846153846154,2,3,0.6035981826192798,1.0316041666584055,1,1,0,1,0,-1,1,-0.4280059840391257,-1,0,0,1,Right,3.863,4,3.503739795917151
12,R_AnTjlb8XLooWJfH,70,j,2,0,3565.199999988079,Remove Christopher Columbus statues,Build southern border wall,-1,-1,2,6,1,0.6035981826192798,0.4161835769018458,3.58974358974359,5.153846153846154,-3,6,2,-1.5364317375763488,0.4161835769018458,3.58974358974359,5.153846153846154,-2,3,-0.6035981826192798,1.5364317375763488,5,-5,0,5,0,-5,5,-2.1400299201956283,5,0,0,1,Right,3.5651999999880792,3,3.503739795917151
12,R_AnTjlb8XLooWJfH,71,j,2,0,2195.5,"Boycott, Divest, and Sanction Israel",Stop police brutality,1,1,1,2,1,0.1755921985801541,-1.5512296957250624,3.58974358974359,5.153846153846154,3,8,3,1.0316041666584055,1.3998902132153,3.58974358974359,5.153846153846154,1,3,0.1755921985801541,1.0316041666584055,2,2,6,2,6,-2,2,-0.8560119680782514,-2,-6,-2.9511199089403624,1,Right,2.1955,1,3.503739795917151
12,R_AnTjlb8XLooWJfH,72,f,1,1,4030,Expel students with white nationlist views,Mask mandates,-1,-1,0,0,1,-0.25241378545897164,-2.5349363320385168,3.58974358974359,5.153846153846154,3,7,4,1.0316041666584055,0.9080368950585729,3.58974358974359,5.153846153846154,-0,-3,0.25241378545897164,-1.0316041666584055,3,-3,-7,3,7,3,-3,1.2840179521173771,-3,-7,-3.44297322709709,0,Left,4.03,4,3.503739795917151
12,R_AnTjlb8XLooWJfH,73,f,1,1,4714,Legalization of marijuana,Recognize Jerusalem as capital of Israel,-1,-1,3,5,3,1.0316041666584055,-0.07566974125488125,3.58974358974359,5.153846153846154,0,0,1,-0.25241378545897164,-2.5349363320385168,3.58974358974359,5.153846153846154,-3,-0,-1.0316041666584055,0.25241378545897164,-3,3,5,3,5,-3,3,-1.2840179521173771,3,5,2.4592665907836353,0,Left,4.714,5,3.503739795917151
12,R_AnTjlb8XLooWJfH,74,j,2,0,2566.900000035763,U.S. drone strikes in Afghanistan,Stop police brutality,1,1,-2,5,1,-1.108425753537223,-0.07566974125488125,3.58974358974359,5.153846153846154,3,8,3,1.0316041666584055,1.3998902132153,3.58974358974359,5.153846153846154,-2,3,-1.108425753537223,1.0316041666584055,5,5,3,5,3,-5,5,-2.1400299201956283,-5,-3,-1.4755599544701812,1,Right,2.566900000035763,1,3.503739795917151
12,R_AnTjlb8XLooWJfH,75,j,2,0,2940.399999976158,Legalization of marijuana,Physician-assisted suicide,-1,-1,3,5,3,1.0316041666584055,-0.07566974125488125,3.58974358974359,5.153846153846154,2,5,2,0.6035981826192798,-0.07566974125488125,3.58974358974359,5.153846153846154,-3,-2,-1.0316041666584055,-0.6035981826192798,1,-1,0,1,0,-1,1,-0.4280059840391257,1,0,0,1,Right,2.940399999976158,2,3.503739795917151
12,R_AnTjlb8XLooWJfH,76,f,1,1,3589.7000000476837,Gun-free campus police,Abolishing fraternities,1,1,2,5,3,0.6035981826192798,-0.07566974125488125,3.58974358974359,5.153846153846154,1,3,2,0.1755921985801541,-1.0593763775683354,3.58974358974359,5.153846153846154,2,1,0.6035981826192798,0.1755921985801541,1,1,2,1,2,1,-1,0.4280059840391257,1,2,0.9837066363134541,0,Left,3.5897000000476837,3,3.503739795917151
12,R_AnTjlb8XLooWJfH,77,j,2,0,2876,Ban on ethnic Halloween costumes,Raise the minimum wage,1,1,1,3,1,0.1755921985801541,-1.0593763775683354,3.58974358974359,5.153846153846154,3,8,3,1.0316041666584055,1.3998902132153,3.58974358974359,5.153846153846154,1,3,0.1755921985801541,1.0316041666584055,2,2,5,2,5,-2,2,-0.8560119680782514,-2,-5,-2.4592665907836353,1,Right,2.876,2,3.503739795917151
12,R_AnTjlb8XLooWJfH,78,f,1,1,3418.2000000476837,War on Drugs,Student worker unionization,1,1,-3,6,1,-1.5364317375763488,0.4161835769018458,3.58974358974359,5.153846153846154,3,5,2,1.0316041666584055,-0.07566974125488125,3.58974358974359,5.153846153846154,-3,3,-1.5364317375763488,1.0316041666584055,-6,-6,1,6,1,-6,6,-2.5680359042347543,-6,1,0.49185331815672706,0,Left,3.4182000000476838,3,3.503739795917151
12,R_AnTjlb8XLooWJfH,79,f,1,1,1708.1000000238419,Black Lives Matter,Ban on ethnic Halloween costumes,1,1,3,6,4,1.0316041666584055,0.4161835769018458,3.58974358974359,5.153846153846154,1,3,1,0.1755921985801541,-1.0593763775683354,3.58974358974359,5.153846153846154,3,1,1.0316041666584055,0.1755921985801541,2,2,3,2,3,2,-2,0.8560119680782514,2,3,1.4755599544701812,0,Left,1.7081000000238418,1,3.503739795917151
12,R_AnTjlb8XLooWJfH,80,f,1,1,2447.100000023842,Abolishing private prisons,Recognize Jerusalem as capital of Israel,1,1,2,6,1,0.6035981826192798,0.4161835769018458,3.58974358974359,5.153846153846154,0,0,1,-0.25241378545897164,-2.5349363320385168,3.58974358974359,5.153846153846154,2,0,0.6035981826192798,-0.25241378545897164,2,2,6,2,6,2,-2,0.8560119680782514,2,6,2.9511199089403624,0,Left,2.4471000000238416,1,3.503739795917151
12,R_AnTjlb8XLooWJfH,81,f,1,1,2185.099999964237,Legalization of marijuana,Hardening schools/Arming teachers,1,1,3,5,3,1.0316041666584055,-0.07566974125488125,3.58974358974359,5.153846153846154,-2,6,1,-1.108425753537223,0.4161835769018458,3.58974358974359,5.153846153846154,3,-2,1.0316041666584055,-1.108425753537223,5,5,-1,5,1,5,-5,2.1400299201956283,5,-1,-0.49185331815672706,0,Left,2.1850999999642373,1,3.503739795917151
12,R_AnTjlb8XLooWJfH,82,j,2,0,3730.699999988079,Abolishing private prisons,Recognize Jerusalem as capital of Israel,-1,-1,2,6,1,0.6035981826192798,0.4161835769018458,3.58974358974359,5.153846153846154,0,0,1,-0.25241378545897164,-2.5349363320385168,3.58974358974359,5.153846153846154,-2,-0,-0.6035981826192798,0.25241378545897164,2,-2,-6,2,6,-2,2,-0.8560119680782514,2,6,2.9511199089403624,1,Right,3.730699999988079,3,3.503739795917151
12,R_AnTjlb8XLooWJfH,83,j,2,0,2599.399999976158,Tuition increases,Climate change legislation,1,1,-3,5,1,-1.5364317375763488,-0.07566974125488125,3.58974358974359,5.153846153846154,3,7,1,1.0316041666584055,0.9080368950585729,3.58974358974359,5.153846153846154,-3,3,-1.5364317375763488,1.0316041666584055,6,6,2,6,2,-6,6,-2.5680359042347543,-6,-2,-0.9837066363134541,1,Right,2.5993999999761583,1,3.503739795917151
12,R_AnTjlb8XLooWJfH,84,f,1,1,5108.800000011921,Abolishing private prisons,Mandatory trigger warnings,1,1,2,6,1,0.6035981826192798,0.4161835769018458,3.58974358974359,5.153846153846154,1,4,1,0.1755921985801541,-0.5675230594116083,3.58974358974359,5.153846153846154,2,1,0.6035981826192798,0.1755921985801541,1,1,2,1,2,1,-1,0.4280059840391257,1,2,0.9837066363134541,0,Left,5.108800000011921,5,3.503739795917151
12,R_AnTjlb8XLooWJfH,85,f,1,1,2693.199999988079,Abortion rights,Gun-free campus police,1,1,3,7,3,1.0316041666584055,0.9080368950585729,3.58974358974359,5.153846153846154,2,5,3,0.6035981826192798,-0.07566974125488125,3.58974358974359,5.153846153846154,3,2,1.0316041666584055,0.6035981826192798,1,1,2,1,2,1,-1,0.4280059840391257,1,2,0.9837066363134541,0,Left,2.693199999988079,2,3.503739795917151
12,R_AnTjlb8XLooWJfH,86,f,1,1,3134.100000023842,Allow alt-right speakers on campus,Stop police brutality,-1,-1,0,2,1,-0.25241378545897164,-1.5512296957250624,3.58974358974359,5.153846153846154,3,8,3,1.0316041666584055,1.3998902132153,3.58974358974359,5.153846153846154,-0,-3,0.25241378545897164,-1.0316041666584055,3,-3,-6,3,6,3,-3,1.2840179521173771,-3,-6,-2.9511199089403624,0,Left,3.134100000023842,2,3.503739795917151
12,R_AnTjlb8XLooWJfH,87,j,2,0,4121.900000035763,"Boycott, Divest, and Sanction Israel",Increased Gun regulations,-1,-1,1,2,1,0.1755921985801541,-1.5512296957250624,3.58974358974359,5.153846153846154,3,6,3,1.0316041666584055,0.4161835769018458,3.58974358974359,5.153846153846154,-1,-3,-0.1755921985801541,-1.0316041666584055,-2,2,4,2,4,2,-2,0.8560119680782514,-2,-4,-1.9674132726269082,1,Right,4.121900000035763,4,3.503739795917151
12,R_AnTjlb8XLooWJfH,88,f,1,1,3827.199999988079,Gun-free campus police,Defund Planned Parenthood,1,1,2,5,3,0.6035981826192798,-0.07566974125488125,3.58974358974359,5.153846153846154,-3,7,1,-1.5364317375763488,0.9080368950585729,3.58974358974359,5.153846153846154,2,-3,0.6035981826192798,-1.5364317375763488,5,5,-2,5,2,5,-5,2.1400299201956283,5,-2,-0.9837066363134541,0,Left,3.8271999999880792,4,3.503739795917151
12,R_AnTjlb8XLooWJfH,89,f,1,1,4121.099999964237,Physician-assisted suicide,"Boycott, Divest, and Sanction Israel",-1,-1,2,5,2,0.6035981826192798,-0.07566974125488125,3.58974358974359,5.153846153846154,1,2,1,0.1755921985801541,-1.5512296957250624,3.58974358974359,5.153846153846154,-2,-1,-0.6035981826192798,-0.1755921985801541,-1,1,3,1,3,-1,1,-0.4280059840391257,1,3,1.4755599544701812,0,Left,4.121099999964237,4,3.503739795917151
12,R_AnTjlb8XLooWJfH,90,f,1,1,3775.5,Increased Gun regulations,Abolishing private prisons,-1,-1,3,6,3,1.0316041666584055,0.4161835769018458,3.58974358974359,5.153846153846154,2,6,1,0.6035981826192798,0.4161835769018458,3.58974358974359,5.153846153846154,-3,-2,-1.0316041666584055,-0.6035981826192798,-1,1,0,1,0,-1,1,-0.4280059840391257,1,0,0,0,Left,3.7755,4,3.503739795917151
12,R_AnTjlb8XLooWJfH,91,j,2,0,3289,Increased Gun regulations,Dorms determined by gender identity,-1,-1,3,6,3,1.0316041666584055,0.4161835769018458,3.58974358974359,5.153846153846154,-2,5,1,-1.108425753537223,-0.07566974125488125,3.58974358974359,5.153846153846154,-3,2,-1.0316041666584055,1.108425753537223,5,-5,-1,5,1,-5,5,-2.1400299201956283,5,1,0.49185331815672706,1,Right,3.289,3,3.503739795917151
12,R_AnTjlb8XLooWJfH,92,j,2,0,4794.300000011921,Climate change legislation,Ban on research with animals,-1,-1,3,7,1,1.0316041666584055,0.9080368950585729,3.58974358974359,5.153846153846154,-1,4,1,-0.6804197694980973,-0.5675230594116083,3.58974358974359,5.153846153846154,-3,1,-1.0316041666584055,0.6804197694980973,4,-4,-3,4,3,-4,4,-1.7120239361565028,4,3,1.4755599544701812,1,Right,4.794300000011921,5,3.503739795917151
12,R_AnTjlb8XLooWJfH,93,f,1,1,3240.699999988079,Remove police from schools,Expel students with white nationlist views,1,1,2,4,1,0.6035981826192798,-0.5675230594116083,3.58974358974359,5.153846153846154,0,0,1,-0.25241378545897164,-2.5349363320385168,3.58974358974359,5.153846153846154,2,0,0.6035981826192798,-0.25241378545897164,2,2,4,2,4,2,-2,0.8560119680782514,2,4,1.9674132726269085,0,Left,3.2406999999880792,2,3.503739795917151
12,R_AnTjlb8XLooWJfH,94,j,2,0,2822.199999988079,Lift COVID lockdowns,Black Lives Matter,1,1,-2,2,2,-1.108425753537223,-1.5512296957250624,3.58974358974359,5.153846153846154,3,6,4,1.0316041666584055,0.4161835769018458,3.58974358974359,5.153846153846154,-2,3,-1.108425753537223,1.0316041666584055,5,5,4,5,4,-5,5,-2.1400299201956283,-5,-4,-1.9674132726269082,1,Right,2.822199999988079,2,3.503739795917151
12,R_AnTjlb8XLooWJfH,95,f,1,1,2593.5,Remove police from schools,Student worker unionization,1,1,2,4,1,0.6035981826192798,-0.5675230594116083,3.58974358974359,5.153846153846154,3,5,2,1.0316041666584055,-0.07566974125488125,3.58974358974359,5.153846153846154,2,3,0.6035981826192798,1.0316041666584055,-1,-1,-1,1,1,-1,1,-0.4280059840391257,-1,-1,-0.49185331815672706,0,Left,2.5935,1,3.503739795917151
12,R_AnTjlb8XLooWJfH,96,f,1,1,3356.300000011921,Remove police from schools,Abolishing private prisons,-1,-1,2,4,1,0.6035981826192798,-0.5675230594116083,3.58974358974359,5.153846153846154,2,6,1,0.6035981826192798,0.4161835769018458,3.58974358974359,5.153846153846154,-2,-2,-0.6035981826192798,-0.6035981826192798,0,0,-2,0,2,0,0,0,0,-2,-0.9837066363134541,0,Left,3.3563000000119207,3,3.503739795917151
12,R_AnTjlb8XLooWJfH,97,j,2,0,3997.300000011921,Abolishing private prisons,Mandatory trigger warnings,-1,-1,2,6,1,0.6035981826192798,0.4161835769018458,3.58974358974359,5.153846153846154,1,4,1,0.1755921985801541,-0.5675230594116083,3.58974358974359,5.153846153846154,-2,-1,-0.6035981826192798,-0.1755921985801541,1,-1,-2,1,2,-1,1,-0.4280059840391257,1,2,0.9837066363134541,1,Right,3.9973000000119208,4,3.503739795917151
12,R_AnTjlb8XLooWJfH,98,j,2,0,4059,Abolishing fraternities,Gun-free campus police,-1,-1,1,3,2,0.1755921985801541,-1.0593763775683354,3.58974358974359,5.153846153846154,2,5,3,0.6035981826192798,-0.07566974125488125,3.58974358974359,5.153846153846154,-1,-2,-0.1755921985801541,-0.6035981826192798,-1,1,2,1,2,1,-1,0.4280059840391257,-1,-2,-0.9837066363134541,1,Right,4.059,4,3.503739795917151
12,R_AnTjlb8XLooWJfH,99,f,1,1,2913,Ban on research with animals,Remove Christopher Columbus statues,-1,-1,-1,4,1,-0.6804197694980973,-0.5675230594116083,3.58974358974359,5.153846153846154,2,6,1,0.6035981826192798,0.4161835769018458,3.58974358974359,5.153846153846154,1,-2,0.6804197694980973,-0.6035981826192798,3,-3,-2,3,2,3,-3,1.2840179521173771,-3,-2,-0.9837066363134541,0,Left,2.913,2,3.503739795917151
12,R_AnTjlb8XLooWJfH,100,j,2,0,2417.699999988079,Abolishing private prisons,Remove police from schools,1,1,2,6,1,0.6035981826192798,0.4161835769018458,3.58974358974359,5.153846153846154,2,4,1,0.6035981826192798,-0.5675230594116083,3.58974358974359,5.153846153846154,2,2,0.6035981826192798,0.6035981826192798,0,0,-2,0,2,0,0,0,0,2,0.9837066363134541,1,Right,2.4176999999880793,1,3.503739795917151
3,R_1jK7Q8P0NpT42uA,3,f,1,1,4392.700000047684,Increased Gun regulations,Remove police from schools,1,1,3,7,4,1.2400396819047415,0.5097513637192775,3.5,5.90625,-1,4,1,-0.7440238091428449,-0.8884238053393123,3.5,5.90625,3,-1,1.2400396819047415,-0.7440238091428449,4,4,3,4,3,4,-4,1.9840634910475865,4,3,1.39817516905859,0,Left,4.392700000047684,4,4.009099999995067
3,R_1jK7Q8P0NpT42uA,4,j,2,0,5109.800000071526,"Boycott, Divest, and Sanction Israel",Increased Gun regulations,1,1,-2,8,2,-1.2400396819047415,0.9758097534054743,3.5,5.90625,3,7,4,1.2400396819047415,0.5097513637192775,3.5,5.90625,-2,3,-1.2400396819047415,1.2400396819047415,5,5,-1,5,1,-5,5,-2.480079363809483,-5,1,0.46605838968619673,1,Right,5.109800000071526,5,4.009099999995067
3,R_1jK7Q8P0NpT42uA,7,j,2,0,3829.899999976158,Lift COVID lockdowns,U.S. drone strikes in Afghanistan,1,1,3,6,4,1.2400396819047415,0.043692974033080936,3.5,5.90625,-1,5,3,-0.7440238091428449,-0.4223654156531157,3.5,5.90625,3,-1,1.2400396819047415,-0.7440238091428449,-4,-4,-1,4,1,4,-4,1.9840634910475865,4,1,0.4660583896861966,1,Right,3.829899999976158,3,4.009099999995067
3,R_1jK7Q8P0NpT42uA,8,f,1,1,3648.7999999523163,Student worker unionization,Expel students with white nationlist views,1,1,2,5,2,0.7440238091428449,-0.4223654156531157,3.5,5.90625,2,6,2,0.7440238091428449,0.043692974033080936,3.5,5.90625,2,2,0.7440238091428449,0.7440238091428449,0,0,-1,0,1,0,0,0,0,-1,-0.4660583896861966,0,Left,3.6487999999523164,2,4.009099999995067
3,R_1jK7Q8P0NpT42uA,10,f,1,1,3422.5,Lift COVID lockdowns,War on Drugs,-1,-1,3,6,4,1.2400396819047415,0.043692974033080936,3.5,5.90625,1,7,3,0.24800793638094829,0.5097513637192775,3.5,5.90625,-3,-1,-1.2400396819047415,-0.24800793638094829,-2,2,-1,2,1,-2,2,-0.9920317455237931,2,-1,-0.4660583896861966,0,Left,3.4225,2,4.009099999995067
3,R_1jK7Q8P0NpT42uA,11,f,1,1,4724.200000047684,Increased Gun regulations,Tuition increases,1,1,3,7,4,1.2400396819047415,0.5097513637192775,3.5,5.90625,-2,2,3,-1.2400396819047415,-1.8205405847117058,3.5,5.90625,3,-2,1.2400396819047415,-1.2400396819047415,5,5,5,5,5,5,-5,2.480079363809483,5,5,2.3302919484309834,0,Left,4.724200000047683,4,4.009099999995067
3,R_1jK7Q8P0NpT42uA,12,j,2,0,5835.600000023842,Gun-free campus police,Legalization of marijuana,1,1,1,4,2,0.24800793638094829,-0.8884238053393123,3.5,5.90625,3,8,4,1.2400396819047415,0.9758097534054743,3.5,5.90625,1,3,0.24800793638094829,1.2400396819047415,2,2,4,2,4,-2,2,-0.9920317455237931,-2,-4,-1.8642335587447865,1,Right,5.835600000023842,5,4.009099999995067
3,R_1jK7Q8P0NpT42uA,13,j,2,0,5121.100000023842,Mandatory vaccinations,U.S. drone strikes in Afghanistan,1,1,2,8,4,0.7440238091428449,0.9758097534054743,3.5,5.90625,-1,5,3,-0.7440238091428449,-0.4223654156531157,3.5,5.90625,2,-1,0.7440238091428449,-0.7440238091428449,-3,-3,-3,3,3,3,-3,1.4880476182856899,3,3,1.39817516905859,1,Right,5.121100000023842,5,4.009099999995067
3,R_1jK7Q8P0NpT42uA,14,j,2,0,4328.899999976158,Raise the minimum wage,Increased Gun regulations,1,1,1,2,4,0.24800793638094829,-1.8205405847117058,3.5,5.90625,3,7,4,1.2400396819047415,0.5097513637192775,3.5,5.90625,1,3,0.24800793638094829,1.2400396819047415,2,2,5,2,5,-2,2,-0.9920317455237931,-2,-5,-2.3302919484309834,1,Right,4.328899999976158,4,4.009099999995067
3,R_1jK7Q8P0NpT42uA,15,f,1,1,3764.2999999523163,Detention of migrant children,Lift COVID lockdowns,-1,-1,-1,8,1,-0.7440238091428449,0.9758097534054743,3.5,5.90625,3,6,4,1.2400396819047415,0.043692974033080936,3.5,5.90625,1,-3,0.7440238091428449,-1.2400396819047415,4,-4,2,4,2,4,-4,1.9840634910475865,-4,2,0.9321167793723933,0,Left,3.7642999999523163,3,4.009099999995067
3,R_1jK7Q8P0NpT42uA,16,f,1,1,2717.100000023842,Increased Gun regulations,Gun-free campus police,1,1,3,7,4,1.2400396819047415,0.5097513637192775,3.5,5.90625,1,4,2,0.24800793638094829,-0.8884238053393123,3.5,5.90625,3,1,1.2400396819047415,0.24800793638094829,2,2,3,2,3,2,-2,0.9920317455237931,2,3,1.39817516905859,0,Left,2.7171000000238417,1,4.009099999995067
3,R_1jK7Q8P0NpT42uA,17,f,1,1,4274.899999976158,Mandatory vaccinations,Mask mandates,1,1,2,8,4,0.7440238091428449,0.9758097534054743,3.5,5.90625,1,7,4,0.24800793638094829,0.5097513637192775,3.5,5.90625,2,1,0.7440238091428449,0.24800793638094829,1,1,1,1,1,1,-1,0.4960158727618966,1,1,0.46605838968619673,0,Left,4.274899999976158,3,4.009099999995067
3,R_1jK7Q8P0NpT42uA,18,f,1,1,4719,Gun-free campus police,Student worker unionization,-1,-1,1,4,2,0.24800793638094829,-0.8884238053393123,3.5,5.90625,2,5,2,0.7440238091428449,-0.4223654156531157,3.5,5.90625,-1,-2,-0.24800793638094829,-0.7440238091428449,1,-1,-1,1,1,1,-1,0.4960158727618966,-1,-1,-0.4660583896861966,0,Left,4.719,4,4.009099999995067
3,R_1jK7Q8P0NpT42uA,20,f,1,1,5785.099999904633,Remove police from schools,Increased Gun regulations,-1,-1,-1,4,1,-0.7440238091428449,-0.8884238053393123,3.5,5.90625,3,7,4,1.2400396819047415,0.5097513637192775,3.5,5.90625,1,-3,0.7440238091428449,-1.2400396819047415,4,-4,-3,4,3,4,-4,1.9840634910475865,-4,-3,-1.39817516905859,0,Left,5.785099999904633,5,4.009099999995067
3,R_1jK7Q8P0NpT42uA,21,j,2,0,4719.5,Raise the minimum wage,Expel students with white nationlist views,-1,-1,1,2,4,0.24800793638094829,-1.8205405847117058,3.5,5.90625,2,6,2,0.7440238091428449,0.043692974033080936,3.5,5.90625,-1,-2,-0.24800793638094829,-0.7440238091428449,-1,1,4,1,4,1,-1,0.4960158727618966,-1,-4,-1.8642335587447867,1,Right,4.7195,4,4.009099999995067
3,R_1jK7Q8P0NpT42uA,23,j,2,0,4013.399999976158,Mandatory vaccinations,Mask mandates,-1,-1,2,8,4,0.7440238091428449,0.9758097534054743,3.5,5.90625,1,7,4,0.24800793638094829,0.5097513637192775,3.5,5.90625,-2,-1,-0.7440238091428449,-0.24800793638094829,1,-1,-1,1,1,-1,1,-0.4960158727618966,1,1,0.46605838968619673,1,Right,4.0133999999761585,3,4.009099999995067
3,R_1jK7Q8P0NpT42uA,24,j,2,0,4177.600000023842,Recognize Jerusalem as capital of Israel,Ban on research with animals,1,1,0,0,2,-0.24800793638094829,-2.752657364084099,3.5,5.90625,2,8,4,0.7440238091428449,0.9758097534054743,3.5,5.90625,0,2,-0.24800793638094829,0.7440238091428449,2,2,8,2,8,-2,2,-0.9920317455237933,-2,-8,-3.7284671174895734,1,Right,4.177600000023842,3,4.009099999995067
3,R_1jK7Q8P0NpT42uA,25,f,1,1,4835.399999976158,Lift COVID lockdowns,Recognize Jerusalem as capital of Israel,-1,-1,3,6,4,1.2400396819047415,0.043692974033080936,3.5,5.90625,0,0,2,-0.24800793638094829,-2.752657364084099,3.5,5.90625,-3,-0,-1.2400396819047415,0.24800793638094829,-3,3,6,3,6,-3,3,-1.4880476182856897,3,6,2.79635033811718,0,Left,4.8353999999761585,4,4.009099999995067
3,R_1jK7Q8P0NpT42uA,26,j,2,0,3227.899999976158,Student worker unionization,Dorms determined by gender identity,-1,-1,2,5,2,0.7440238091428449,-0.4223654156531157,3.5,5.90625,-3,6,4,-1.736055554666638,0.043692974033080936,3.5,5.90625,-2,3,-0.7440238091428449,1.736055554666638,5,-5,1,5,1,-5,5,-2.480079363809483,5,-1,-0.4660583896861966,1,Right,3.227899999976158,1,4.009099999995067
3,R_1jK7Q8P0NpT42uA,27,f,1,1,5277,Lift COVID lockdowns,War on Drugs,1,1,3,6,4,1.2400396819047415,0.043692974033080936,3.5,5.90625,1,7,3,0.24800793638094829,0.5097513637192775,3.5,5.90625,3,1,1.2400396819047415,0.24800793638094829,2,2,-1,2,1,2,-2,0.9920317455237931,2,-1,-0.4660583896861966,0,Left,5.277,5,4.009099999995067
3,R_1jK7Q8P0NpT42uA,28,j,2,0,5577.399999976158,Raise the minimum wage,Climate change legislation,-1,-1,1,2,4,0.24800793638094829,-1.8205405847117058,3.5,5.90625,3,8,4,1.2400396819047415,0.9758097534054743,3.5,5.90625,-1,-3,-0.24800793638094829,-1.2400396819047415,-2,2,6,2,6,2,-2,0.9920317455237931,-2,-6,-2.79635033811718,1,Right,5.5773999999761585,5,4.009099999995067
3,R_1jK7Q8P0NpT42uA,29,j,2,0,3388.899999976158,Build southern border wall,Lift COVID lockdowns,1,1,-3,7,3,-1.736055554666638,0.5097513637192775,3.5,5.90625,3,6,4,1.2400396819047415,0.043692974033080936,3.5,5.90625,-3,3,-1.736055554666638,1.2400396819047415,6,6,-1,6,1,-6,6,-2.9760952365713793,-6,1,0.4660583896861966,1,Right,3.388899999976158,2,4.009099999995067
3,R_1jK7Q8P0NpT42uA,30,f,1,1,5388.700000047684,Stop police brutality,Physician-assisted suicide,-1,-1,2,8,3,0.7440238091428449,0.9758097534054743,3.5,5.90625,1,5,3,0.24800793638094829,-0.4223654156531157,3.5,5.90625,-2,-1,-0.7440238091428449,-0.24800793638094829,-1,1,3,1,3,-1,1,-0.4960158727618966,1,3,1.39817516905859,0,Left,5.388700000047684,5,4.009099999995067
3,R_1jK7Q8P0NpT42uA,31,j,2,0,3608,Stop police brutality,Build southern border wall,-1,-1,2,8,3,0.7440238091428449,0.9758097534054743,3.5,5.90625,-3,7,3,-1.736055554666638,0.5097513637192775,3.5,5.90625,-2,3,-0.7440238091428449,1.736055554666638,5,-5,-1,5,1,-5,5,-2.480079363809483,5,1,0.46605838968619673,1,Right,3.608,2,4.009099999995067
3,R_1jK7Q8P0NpT42uA,32,f,1,1,4905.300000071526,Legalization of marijuana,Increased Gun regulations,-1,-1,3,8,4,1.2400396819047415,0.9758097534054743,3.5,5.90625,3,7,4,1.2400396819047415,0.5097513637192775,3.5,5.90625,-3,-3,-1.2400396819047415,-1.2400396819047415,0,0,1,0,1,0,0,0,0,1,0.46605838968619673,0,Left,4.9053000000715254,4,4.009099999995067
3,R_1jK7Q8P0NpT42uA,33,f,1,1,4682.099999904633,Student worker unionization,Raise the minimum wage,1,1,2,5,2,0.7440238091428449,-0.4223654156531157,3.5,5.90625,1,2,4,0.24800793638094829,-1.8205405847117058,3.5,5.90625,2,1,0.7440238091428449,0.24800793638094829,1,1,3,1,3,1,-1,0.4960158727618966,1,3,1.39817516905859,0,Left,4.682099999904633,4,4.009099999995067
3,R_1jK7Q8P0NpT42uA,34,j,2,0,3428.7000000476837,Student worker unionization,Lift COVID lockdowns,-1,-1,2,5,2,0.7440238091428449,-0.4223654156531157,3.5,5.90625,3,6,4,1.2400396819047415,0.043692974033080936,3.5,5.90625,-2,-3,-0.7440238091428449,-1.2400396819047415,-1,1,1,1,1,1,-1,0.4960158727618965,-1,-1,-0.4660583896861966,1,Right,3.4287000000476837,2,4.009099999995067
3,R_1jK7Q8P0NpT42uA,35,j,2,0,5034.399999976158,Mandatory drug tests for welfare recipients,Gun-free campus police,-1,-1,2,6,2,0.7440238091428449,0.043692974033080936,3.5,5.90625,1,4,2,0.24800793638094829,-0.8884238053393123,3.5,5.90625,-2,-1,-0.7440238091428449,-0.24800793638094829,1,-1,-2,1,2,-1,1,-0.4960158727618966,1,2,0.9321167793723932,1,Right,5.034399999976158,5,4.009099999995067
3,R_1jK7Q8P0NpT42uA,36,j,2,0,3550.6999999284744,Black Lives Matter,Tuition increases,-1,-1,3,8,4,1.2400396819047415,0.9758097534054743,3.5,5.90625,-2,2,3,-1.2400396819047415,-1.8205405847117058,3.5,5.90625,-3,2,-1.2400396819047415,1.2400396819047415,5,-5,-6,5,6,-5,5,-2.480079363809483,5,6,2.79635033811718,1,Right,3.5506999999284745,2,4.009099999995067
3,R_1jK7Q8P0NpT42uA,37,f,1,1,3245.2000000476837,Stop police brutality,Defund the police,1,1,2,8,3,0.7440238091428449,0.9758097534054743,3.5,5.90625,-2,6,3,-1.2400396819047415,0.043692974033080936,3.5,5.90625,2,-2,0.7440238091428449,-1.2400396819047415,4,4,2,4,2,4,-4,1.9840634910475865,4,2,0.9321167793723933,0,Left,3.2452000000476837,1,4.009099999995067
3,R_1jK7Q8P0NpT42uA,38,j,2,0,5318.800000071526,Student worker unionization,Religious exemptions for discrimination laws,-1,-1,2,5,2,0.7440238091428449,-0.4223654156531157,3.5,5.90625,-1,3,2,-0.7440238091428449,-1.354482195025509,3.5,5.90625,-2,1,-0.7440238091428449,0.7440238091428449,3,-3,-2,3,2,-3,3,-1.4880476182856899,3,2,0.9321167793723933,1,Right,5.318800000071525,5,4.009099999995067
3,R_1jK7Q8P0NpT42uA,39,f,1,1,3286.8000000715256,Increased Gun regulations,Abolishing fraternities,1,1,3,7,4,1.2400396819047415,0.5097513637192775,3.5,5.90625,-2,3,3,-1.2400396819047415,-1.354482195025509,3.5,5.90625,3,-2,1.2400396819047415,-1.2400396819047415,5,5,4,5,4,5,-5,2.480079363809483,5,4,1.8642335587447865,0,Left,3.2868000000715254,1,4.009099999995067
3,R_1jK7Q8P0NpT42uA,40,f,1,1,5800.699999928474,Abolishing fraternities,Abortion rights,-1,-1,-2,3,3,-1.2400396819047415,-1.354482195025509,3.5,5.90625,3,8,4,1.2400396819047415,0.9758097534054743,3.5,5.90625,2,-3,1.2400396819047415,-1.2400396819047415,5,-5,-5,5,5,5,-5,2.480079363809483,-5,-5,-2.3302919484309834,0,Left,5.800699999928474,5,4.009099999995067
3,R_1jK7Q8P0NpT42uA,41,j,2,0,3829.100000023842,Student worker unionization,Tuition increases,-1,-1,2,5,2,0.7440238091428449,-0.4223654156531157,3.5,5.90625,-2,2,3,-1.2400396819047415,-1.8205405847117058,3.5,5.90625,-2,2,-0.7440238091428449,1.2400396819047415,4,-4,-3,4,3,-4,4,-1.9840634910475865,4,3,1.39817516905859,1,Right,3.8291000000238418,3,4.009099999995067
3,R_1jK7Q8P0NpT42uA,42,f,1,1,2414.600000023842,Abortion rights,Remove police from schools,1,1,3,8,4,1.2400396819047415,0.9758097534054743,3.5,5.90625,-1,4,1,-0.7440238091428449,-0.8884238053393123,3.5,5.90625,3,-1,1.2400396819047415,-0.7440238091428449,4,4,4,4,4,4,-4,1.9840634910475865,4,4,1.8642335587447865,0,Left,2.414600000023842,1,4.009099999995067
3,R_1jK7Q8P0NpT42uA,44,f,1,1,3871.600000023842,Expel students with white nationlist views,Student worker unionization,-1,-1,2,6,2,0.7440238091428449,0.043692974033080936,3.5,5.90625,2,5,2,0.7440238091428449,-0.4223654156531157,3.5,5.90625,-2,-2,-0.7440238091428449,-0.7440238091428449,0,0,1,0,1,0,0,0,0,1,0.4660583896861966,0,Left,3.8716000000238417,3,4.009099999995067
3,R_1jK7Q8P0NpT42uA,45,j,2,0,3738.1999999284744,Religious exemptions for discrimination laws,Abortion rights,1,1,-1,3,2,-0.7440238091428449,-1.354482195025509,3.5,5.90625,3,8,4,1.2400396819047415,0.9758097534054743,3.5,5.90625,-1,3,-0.7440238091428449,1.2400396819047415,4,4,5,4,5,-4,4,-1.9840634910475865,-4,-5,-2.3302919484309834,1,Right,3.7381999999284745,3,4.009099999995067
3,R_1jK7Q8P0NpT42uA,46,j,2,0,3330.2000000476837,Tuition increases,Black Lives Matter,1,1,-2,2,3,-1.2400396819047415,-1.8205405847117058,3.5,5.90625,3,8,4,1.2400396819047415,0.9758097534054743,3.5,5.90625,-2,3,-1.2400396819047415,1.2400396819047415,5,5,6,5,6,-5,5,-2.480079363809483,-5,-6,-2.79635033811718,1,Right,3.3302000000476837,2,4.009099999995067
3,R_1jK7Q8P0NpT42uA,47,f,1,1,3687,Raise the minimum wage,Increased Gun regulations,-1,-1,1,2,4,0.24800793638094829,-1.8205405847117058,3.5,5.90625,3,7,4,1.2400396819047415,0.5097513637192775,3.5,5.90625,-1,-3,-0.24800793638094829,-1.2400396819047415,2,-2,-5,2,5,2,-2,0.9920317455237931,-2,-5,-2.3302919484309834,0,Left,3.687,2,4.009099999995067
3,R_1jK7Q8P0NpT42uA,48,j,2,0,4326.600000023842,Increased Gun regulations,Gun-free campus police,-1,-1,3,7,4,1.2400396819047415,0.5097513637192775,3.5,5.90625,1,4,2,0.24800793638094829,-0.8884238053393123,3.5,5.90625,-3,-1,-1.2400396819047415,-0.24800793638094829,2,-2,-3,2,3,-2,2,-0.9920317455237931,2,3,1.39817516905859,1,Right,4.326600000023842,4,4.009099999995067
3,R_1jK7Q8P0NpT42uA,49,j,2,0,3310.100000023842,Legalization of marijuana,Expel students with white nationlist views,-1,-1,3,8,4,1.2400396819047415,0.9758097534054743,3.5,5.90625,2,6,2,0.7440238091428449,0.043692974033080936,3.5,5.90625,-3,-2,-1.2400396819047415,-0.7440238091428449,1,-1,-2,1,2,-1,1,-0.4960158727618965,1,2,0.9321167793723933,1,Right,3.3101000000238416,2,4.009099999995067
3,R_1jK7Q8P0NpT42uA,50,f,1,1,4663.600000023842,Legalization of marijuana,Dorms determined by gender identity,-1,-1,3,8,4,1.2400396819047415,0.9758097534054743,3.5,5.90625,-3,6,4,-1.736055554666638,0.043692974033080936,3.5,5.90625,-3,3,-1.2400396819047415,1.736055554666638,-6,6,2,6,2,-6,6,-2.9760952365713793,6,2,0.9321167793723933,0,Left,4.663600000023842,4,4.009099999995067
3,R_1jK7Q8P0NpT42uA,52,j,2,0,3518.1999999284744,Build southern border wall,Stop police brutality,1,1,-3,7,3,-1.736055554666638,0.5097513637192775,3.5,5.90625,2,8,3,0.7440238091428449,0.9758097534054743,3.5,5.90625,-3,2,-1.736055554666638,0.7440238091428449,5,5,1,5,1,-5,5,-2.480079363809483,-5,-1,-0.46605838968619673,1,Right,3.5181999999284743,2,4.009099999995067
3,R_1jK7Q8P0NpT42uA,53,j,2,0,4407.399999976158,"Boycott, Divest, and Sanction Israel",Student worker unionization,1,1,-2,8,2,-1.2400396819047415,0.9758097534054743,3.5,5.90625,2,5,2,0.7440238091428449,-0.4223654156531157,3.5,5.90625,-2,2,-1.2400396819047415,0.7440238091428449,4,4,-3,4,3,-4,4,-1.9840634910475865,-4,3,1.39817516905859,1,Right,4.407399999976158,4,4.009099999995067
3,R_1jK7Q8P0NpT42uA,54,f,1,1,4016.399999976158,Religious exemptions for discrimination laws,Abortion rights,-1,-1,-1,3,2,-0.7440238091428449,-1.354482195025509,3.5,5.90625,3,8,4,1.2400396819047415,0.9758097534054743,3.5,5.90625,1,-3,0.7440238091428449,-1.2400396819047415,4,-4,-5,4,5,4,-4,1.9840634910475865,-4,-5,-2.3302919484309834,0,Left,4.016399999976158,3,4.009099999995067
3,R_1jK7Q8P0NpT42uA,55,j,2,0,4072.899999976158,Physician-assisted suicide,Stop police brutality,1,1,1,5,3,0.24800793638094829,-0.4223654156531157,3.5,5.90625,2,8,3,0.7440238091428449,0.9758097534054743,3.5,5.90625,1,2,0.24800793638094829,0.7440238091428449,1,1,3,1,3,-1,1,-0.4960158727618966,-1,-3,-1.39817516905859,1,Right,4.072899999976158,3,4.009099999995067
3,R_1jK7Q8P0NpT42uA,57,j,2,0,3401.7000000476837,Student worker unionization,Mandatory training on sexual consent,1,1,2,5,2,0.7440238091428449,-0.4223654156531157,3.5,5.90625,2,8,3,0.7440238091428449,0.9758097534054743,3.5,5.90625,2,2,0.7440238091428449,0.7440238091428449,0,0,3,0,3,0,0,0,0,-3,-1.39817516905859,1,Right,3.4017000000476836,2,4.009099999995067
3,R_1jK7Q8P0NpT42uA,58,j,2,0,3588.100000023842,Increased Gun regulations,Dorms determined by gender identity,-1,-1,3,7,4,1.2400396819047415,0.5097513637192775,3.5,5.90625,-3,6,4,-1.736055554666638,0.043692974033080936,3.5,5.90625,-3,3,-1.2400396819047415,1.736055554666638,6,-6,-1,6,1,-6,6,-2.9760952365713793,6,1,0.4660583896861966,1,Right,3.5881000000238417,2,4.009099999995067
3,R_1jK7Q8P0NpT42uA,59,j,2,0,3353.100000023842,Student worker unionization,Abolishing fraternities,-1,-1,2,5,2,0.7440238091428449,-0.4223654156531157,3.5,5.90625,-2,3,3,-1.2400396819047415,-1.354482195025509,3.5,5.90625,-2,2,-0.7440238091428449,1.2400396819047415,4,-4,-2,4,2,-4,4,-1.9840634910475865,4,2,0.9321167793723933,1,Right,3.353100000023842,2,4.009099999995067
3,R_1jK7Q8P0NpT42uA,60,f,1,1,4295.899999976158,Student worker unionization,Lift COVID lockdowns,1,1,2,5,2,0.7440238091428449,-0.4223654156531157,3.5,5.90625,3,6,4,1.2400396819047415,0.043692974033080936,3.5,5.90625,2,3,0.7440238091428449,1.2400396819047415,-1,-1,-1,1,1,-1,1,-0.4960158727618965,-1,-1,-0.4660583896861966,0,Left,4.295899999976158,3,4.009099999995067
3,R_1jK7Q8P0NpT42uA,61,j,2,0,3986,Legalization of marijuana,Gun-free campus police,-1,-1,3,8,4,1.2400396819047415,0.9758097534054743,3.5,5.90625,1,4,2,0.24800793638094829,-0.8884238053393123,3.5,5.90625,-3,-1,-1.2400396819047415,-0.24800793638094829,2,-2,-4,2,4,-2,2,-0.9920317455237931,2,4,1.8642335587447865,1,Right,3.986,3,4.009099999995067
3,R_1jK7Q8P0NpT42uA,62,f,1,1,4861.700000047684,"Boycott, Divest, and Sanction Israel",Increased Gun regulations,-1,-1,-2,8,2,-1.2400396819047415,0.9758097534054743,3.5,5.90625,3,7,4,1.2400396819047415,0.5097513637192775,3.5,5.90625,2,-3,1.2400396819047415,-1.2400396819047415,5,-5,1,5,1,5,-5,2.480079363809483,-5,1,0.46605838968619673,0,Left,4.8617000000476835,4,4.009099999995067
3,R_1jK7Q8P0NpT42uA,63,f,1,1,4428.699999928474,Recognize Jerusalem as capital of Israel,Ban on research with animals,-1,-1,0,0,2,-0.24800793638094829,-2.752657364084099,3.5,5.90625,2,8,4,0.7440238091428449,0.9758097534054743,3.5,5.90625,-0,-2,0.24800793638094829,-0.7440238091428449,2,-2,-8,2,8,2,-2,0.9920317455237933,-2,-8,-3.7284671174895734,0,Left,4.428699999928474,4,4.009099999995067
