Subj,SID,Trial,Resp,Response,ChooseLeft,RT,IssueLeft,IssueRight,PosLeft,PosRight,LeftSupport,LeftMoral,LeftFamiliar,LeftSupport_z,LeftMoral_z,LeftSupport_zm,LeftMoral_zm,RightSupport,RightMoral,RightFamiliar,RightSupport_z,RightMoral_z,RightSupport_zm,RightMoral_zm,LeftAdj,RightAdj,LeftAdjz,RightAdjz,ChoiceSupport,ChoiceSupportNaive,ChoiceMoral,ChoiceSupportDist,ChoiceMoralDist,LeftAdjDiff,RightAdjDiff,LeftRDV,LeftDiff_raw,LeftMoral_diff,LeftRMC,ChooseRight,Choice,RTs,RTqtile,RT_mean
7,R_3PvrQaRZu0fAMjC,1,f,1,1,1867.7000000476837,Physician-assisted suicide,Abolishing fraternities,-1,-1,3,7,3,1.0345803562825906,0.6341716202639542,3.3870967741935485,5.161290322580645,-2,4,2,-0.945172177344589,-0.40052944437723415,3.3870967741935485,5.161290322580645,-3,2,-1.0345803562825906,0.945172177344589,-5,5,3,5,3,-5,5,-1.9797525336271797,5,3,1.0347010646411885,0,Left,1.8677000000476838,1,2.963196938765292
7,R_3PvrQaRZu0fAMjC,2,f,1,1,2193.0999999046326,Defund the police,Remove public Confederate memorials,1,1,0,6,2,-0.15327116389371717,0.2892712653835581,3.3870967741935485,5.161290322580645,3,7,4,1.0345803562825906,0.6341716202639542,3.3870967741935485,5.161290322580645,0,3,-0.15327116389371717,1.0345803562825906,-3,-3,-1,3,1,-3,3,-1.1878515201763078,-3,-1,-0.34490035488039616,0,Left,2.1930999999046326,2,2.963196938765292
7,R_3PvrQaRZu0fAMjC,3,f,1,1,2318.7999999523163,Gun-free campus police,Stop police brutality,1,-1,3,8,3,1.0345803562825906,0.9790719751443503,3.3870967741935485,5.161290322580645,3,7,3,1.0345803562825906,0.6341716202639542,3.3870967741935485,5.161290322580645,3,-3,1.0345803562825906,-1.0345803562825906,6,0,1,6,1,6,-6,2.069160712565181,0,1,0.34490035488039605,0,Left,2.3187999999523163,2,2.963196938765292
7,R_3PvrQaRZu0fAMjC,4,f,1,1,1922.8999998569489,Stop police brutality,On campus concealed carry,1,-1,3,7,3,1.0345803562825906,0.6341716202639542,3.3870967741935485,5.161290322580645,-3,0,4,-1.341122684070025,-1.7801308638988187,3.3870967741935485,5.161290322580645,3,3,1.0345803562825906,1.341122684070025,0,6,7,0,7,0,0,-0.3065423277874344,6,7,2.414302484162773,0,Left,1.922899999856949,2,2.963196938765292
7,R_3PvrQaRZu0fAMjC,5,j,2,0,1473.0999999046326,Build southern border wall,Black Lives Matter,1,1,-3,6,3,-1.341122684070025,0.2892712653835581,3.3870967741935485,5.161290322580645,3,8,4,1.0345803562825906,0.9790719751443503,3.3870967741935485,5.161290322580645,-3,3,-1.341122684070025,1.0345803562825906,6,6,2,6,2,-6,6,-2.3757030403526156,-6,-2,-0.6898007097607922,1,Right,1.4730999999046326,1,2.963196938765292
7,R_3PvrQaRZu0fAMjC,6,f,1,1,1343.0999999046326,Climate change legislation,Safe injection locations,1,-1,3,5,4,1.0345803562825906,-0.055629089496838036,3.3870967741935485,5.161290322580645,3,7,3,1.0345803562825906,0.6341716202639542,3.3870967741935485,5.161290322580645,3,-3,1.0345803562825906,-1.0345803562825906,6,0,-2,6,2,6,-6,2.069160712565181,0,-2,-0.6898007097607923,0,Left,1.3430999999046325,1,2.963196938765292
7,R_3PvrQaRZu0fAMjC,7,f,1,1,1374.2999999523163,Remove public Confederate memorials,Lift COVID lockdowns,-1,-1,3,7,4,1.0345803562825906,0.6341716202639542,3.3870967741935485,5.161290322580645,-3,2,4,-1.341122684070025,-1.0903301541380264,3.3870967741935485,5.161290322580645,-3,3,-1.0345803562825906,1.341122684070025,-6,6,5,6,5,-6,6,-2.3757030403526156,6,5,1.7245017744019806,0,Left,1.3742999999523162,1,2.963196938765292
7,R_3PvrQaRZu0fAMjC,8,j,2,0,1183.0999999046326,Black Lives Matter,Student worker unionization,-1,-1,3,8,4,1.0345803562825906,0.9790719751443503,3.3870967741935485,5.161290322580645,2,6,1,0.6386298495571547,0.2892712653835581,3.3870967741935485,5.161290322580645,-3,-2,-1.0345803562825906,-0.6386298495571547,1,-1,-2,1,2,-1,1,-0.39595050672543586,1,2,0.6898007097607922,1,Right,1.1830999999046325,1,2.963196938765292
7,R_3PvrQaRZu0fAMjC,9,j,2,0,1550.2000000476837,Gun-free campus police,Mandatory trigger warnings,-1,1,3,8,3,1.0345803562825906,0.9790719751443503,3.3870967741935485,5.161290322580645,-1,8,3,-0.5492216706191531,0.9790719751443503,3.3870967741935485,5.161290322580645,-3,-1,-1.0345803562825906,-0.5492216706191531,2,-4,0,2,0,-2,2,-0.48535868566343754,4,0,0,1,Right,1.5502000000476837,1,2.963196938765292
7,R_3PvrQaRZu0fAMjC,10,f,1,1,2149.199999809265,Affirmative action,Remove public Confederate memorials,-1,-1,-2,0,1,-0.945172177344589,-1.7801308638988187,3.3870967741935485,5.161290322580645,3,7,4,1.0345803562825906,0.6341716202639542,3.3870967741935485,5.161290322580645,2,-3,0.945172177344589,-1.0345803562825906,5,-5,-7,5,7,5,-5,1.9797525336271797,-5,-7,-2.414302484162773,0,Left,2.149199999809265,2,2.963196938765292
7,R_3PvrQaRZu0fAMjC,11,f,1,1,1744.8999998569489,Stop police brutality,Remove police from schools,1,-1,3,7,3,1.0345803562825906,0.6341716202639542,3.3870967741935485,5.161290322580645,3,6,4,1.0345803562825906,0.2892712653835581,3.3870967741935485,5.161290322580645,3,-3,1.0345803562825906,-1.0345803562825906,6,0,1,6,1,6,-6,2.069160712565181,0,1,0.34490035488039616,0,Left,1.7448999998569488,1,2.963196938765292
7,R_3PvrQaRZu0fAMjC,12,j,2,0,1295.2999999523163,Stop police brutality,Student worker unionization,-1,-1,3,7,3,1.0345803562825906,0.6341716202639542,3.3870967741935485,5.161290322580645,2,6,1,0.6386298495571547,0.2892712653835581,3.3870967741935485,5.161290322580645,-3,-2,-1.0345803562825906,-0.6386298495571547,1,-1,-1,1,1,-1,1,-0.39595050672543586,1,1,0.34490035488039616,1,Right,1.2952999999523163,1,2.963196938765292
7,R_3PvrQaRZu0fAMjC,13,f,1,1,1854.9000000953674,Abolishing fraternities,Bathrooms restricted based on biological sex,-1,1,-2,4,2,-0.945172177344589,-0.40052944437723415,3.3870967741935485,5.161290322580645,-3,8,3,-1.341122684070025,0.9790719751443503,3.3870967741935485,5.161290322580645,2,-3,0.945172177344589,-1.341122684070025,5,1,-4,5,4,5,-5,2.286294861414614,1,-4,-1.3796014195215844,0,Left,1.8549000000953675,1,2.963196938765292
7,R_3PvrQaRZu0fAMjC,14,j,2,0,1369.0999999046326,Black Lives Matter,Increased Gun regulations,-1,1,3,8,4,1.0345803562825906,0.9790719751443503,3.3870967741935485,5.161290322580645,3,0,4,1.0345803562825906,-1.7801308638988187,3.3870967741935485,5.161290322580645,-3,3,-1.0345803562825906,1.0345803562825906,6,0,-8,6,8,-6,6,-2.069160712565181,0,8,2.759202839043169,1,Right,1.3690999999046325,1,2.963196938765292
7,R_3PvrQaRZu0fAMjC,15,j,2,0,1581.5,Mandatory vaccinations,Black Lives Matter,-1,1,3,4,3,1.0345803562825906,-0.40052944437723415,3.3870967741935485,5.161290322580645,3,8,4,1.0345803562825906,0.9790719751443503,3.3870967741935485,5.161290322580645,-3,3,-1.0345803562825906,1.0345803562825906,6,0,4,6,4,-6,6,-2.069160712565181,0,-4,-1.3796014195215844,1,Right,1.5815,1,2.963196938765292
7,R_3PvrQaRZu0fAMjC,17,j,2,0,3030.100000143051,Hardening schools/Arming teachers,Bathrooms restricted based on biological sex,1,-1,-3,2,3,-1.341122684070025,-1.0903301541380264,3.3870967741935485,5.161290322580645,-3,8,3,-1.341122684070025,0.9790719751443503,3.3870967741935485,5.161290322580645,-3,3,-1.341122684070025,1.341122684070025,6,0,6,6,6,-6,6,-2.68224536814005,0,-6,-2.0694021292823765,1,Right,3.0301000001430514,3,2.963196938765292
7,R_3PvrQaRZu0fAMjC,18,j,2,0,1572.8999998569489,Bathrooms restricted based on biological sex,Affirmative action,1,-1,-3,8,3,-1.341122684070025,0.9790719751443503,3.3870967741935485,5.161290322580645,-2,0,1,-0.945172177344589,-1.7801308638988187,3.3870967741935485,5.161290322580645,-3,2,-1.341122684070025,0.945172177344589,5,1,-8,5,8,-5,5,-2.286294861414614,-1,8,2.759202839043169,1,Right,1.5728999998569488,1,2.963196938765292
7,R_3PvrQaRZu0fAMjC,19,j,2,0,5188.699999809265,Remove police from schools,Remove public Confederate memorials,-1,-1,3,6,4,1.0345803562825906,0.2892712653835581,3.3870967741935485,5.161290322580645,3,7,4,1.0345803562825906,0.6341716202639542,3.3870967741935485,5.161290322580645,-3,-3,-1.0345803562825906,-1.0345803562825906,0,0,1,0,1,0,0,0,0,-1,-0.34490035488039616,1,Right,5.188699999809265,5,2.963196938765292
7,R_3PvrQaRZu0fAMjC,20,f,1,1,1894.7999999523163,Climate change legislation,Black Lives Matter,1,1,3,5,4,1.0345803562825906,-0.055629089496838036,3.3870967741935485,5.161290322580645,3,8,4,1.0345803562825906,0.9790719751443503,3.3870967741935485,5.161290322580645,3,3,1.0345803562825906,1.0345803562825906,0,0,-3,0,3,0,0,0,0,-3,-1.0347010646411883,0,Left,1.8947999999523162,2,2.963196938765292
7,R_3PvrQaRZu0fAMjC,21,j,2,0,4429.399999856949,Gun-free campus police,Allow alt-right speakers on campus,-1,-1,3,8,3,1.0345803562825906,0.9790719751443503,3.3870967741935485,5.161290322580645,0,7,3,-0.15327116389371717,0.6341716202639542,3.3870967741935485,5.161290322580645,-3,-0,-1.0345803562825906,0.15327116389371717,3,-3,-1,3,1,-3,3,-1.1878515201763078,3,1,0.34490035488039605,1,Right,4.429399999856948,5,2.963196938765292
7,R_3PvrQaRZu0fAMjC,22,j,2,0,4480.900000095367,Black Lives Matter,Climate change legislation,-1,-1,3,8,4,1.0345803562825906,0.9790719751443503,3.3870967741935485,5.161290322580645,3,5,4,1.0345803562825906,-0.055629089496838036,3.3870967741935485,5.161290322580645,-3,-3,-1.0345803562825906,-1.0345803562825906,0,0,-3,0,3,0,0,0,0,3,1.0347010646411883,1,Right,4.480900000095367,5,2.963196938765292
7,R_3PvrQaRZu0fAMjC,23,f,1,1,2606.2999999523163,Physician-assisted suicide,Affirmative action,1,-1,3,7,3,1.0345803562825906,0.6341716202639542,3.3870967741935485,5.161290322580645,-2,0,1,-0.945172177344589,-1.7801308638988187,3.3870967741935485,5.161290322580645,3,2,1.0345803562825906,0.945172177344589,1,5,7,1,7,1,-1,0.08940817893800157,5,7,2.414302484162773,0,Left,2.6062999999523164,3,2.963196938765292
7,R_3PvrQaRZu0fAMjC,24,j,2,0,3331.2999999523163,Safe injection locations,Abolishing fraternities,-1,1,3,7,3,1.0345803562825906,0.6341716202639542,3.3870967741935485,5.161290322580645,-2,4,2,-0.945172177344589,-0.40052944437723415,3.3870967741935485,5.161290322580645,-3,-2,-1.0345803562825906,-0.945172177344589,1,-5,-3,1,3,-1,1,-0.08940817893800157,5,3,1.0347010646411885,1,Right,3.331299999952316,4,2.963196938765292
7,R_3PvrQaRZu0fAMjC,25,f,1,1,3963.5,Ban on research with animals,Safe injection locations,-1,-1,0,2,1,-0.15327116389371717,-1.0903301541380264,3.3870967741935485,5.161290322580645,3,7,3,1.0345803562825906,0.6341716202639542,3.3870967741935485,5.161290322580645,-0,-3,0.15327116389371717,-1.0345803562825906,3,-3,-5,3,5,3,-3,1.1878515201763078,-3,-5,-1.7245017744019806,0,Left,3.9635,4,2.963196938765292
7,R_3PvrQaRZu0fAMjC,26,j,2,0,2436.9000000953674,Remove Christopher Columbus statues,Black Lives Matter,1,1,2,8,2,0.6386298495571547,0.9790719751443503,3.3870967741935485,5.161290322580645,3,8,4,1.0345803562825906,0.9790719751443503,3.3870967741935485,5.161290322580645,2,3,0.6386298495571547,1.0345803562825906,1,1,0,1,0,-1,1,-0.39595050672543586,-1,0,0,1,Right,2.4369000000953673,2,2.963196938765292
7,R_3PvrQaRZu0fAMjC,27,f,1,1,2589.9000000953674,Remove police from schools,Physician-assisted suicide,1,-1,3,6,4,1.0345803562825906,0.2892712653835581,3.3870967741935485,5.161290322580645,3,7,3,1.0345803562825906,0.6341716202639542,3.3870967741935485,5.161290322580645,3,-3,1.0345803562825906,-1.0345803562825906,6,0,-1,6,1,6,-6,2.069160712565181,0,-1,-0.34490035488039616,0,Left,2.5899000000953674,2,2.963196938765292
7,R_3PvrQaRZu0fAMjC,28,f,1,1,2740.199999809265,Increased Gun regulations,Stop police brutality,-1,-1,3,0,4,1.0345803562825906,-1.7801308638988187,3.3870967741935485,5.161290322580645,3,7,3,1.0345803562825906,0.6341716202639542,3.3870967741935485,5.161290322580645,-3,-3,-1.0345803562825906,-1.0345803562825906,0,0,-7,0,7,0,0,0,0,-7,-2.414302484162773,0,Left,2.740199999809265,3,2.963196938765292
7,R_3PvrQaRZu0fAMjC,29,f,1,1,3864.4000000953674,Safe injection locations,Student worker unionization,1,1,3,7,3,1.0345803562825906,0.6341716202639542,3.3870967741935485,5.161290322580645,2,6,1,0.6386298495571547,0.2892712653835581,3.3870967741935485,5.161290322580645,3,2,1.0345803562825906,0.6386298495571547,1,1,1,1,1,1,-1,0.39595050672543586,1,1,0.34490035488039616,0,Left,3.8644000000953675,4,2.963196938765292
7,R_3PvrQaRZu0fAMjC,30,j,2,0,3029.100000143051,Remove public Confederate memorials,"Boycott, Divest, and Sanction Israel",-1,1,3,7,4,1.0345803562825906,0.6341716202639542,3.3870967741935485,5.161290322580645,2,8,3,0.6386298495571547,0.9790719751443503,3.3870967741935485,5.161290322580645,-3,2,-1.0345803562825906,0.6386298495571547,5,-1,1,5,1,-5,5,-1.6732102058397453,1,-1,-0.34490035488039605,1,Right,3.029100000143051,3,2.963196938765292
7,R_3PvrQaRZu0fAMjC,31,j,2,0,2346.5,Physician-assisted suicide,Mandatory vaccinations,-1,1,3,7,3,1.0345803562825906,0.6341716202639542,3.3870967741935485,5.161290322580645,3,4,3,1.0345803562825906,-0.40052944437723415,3.3870967741935485,5.161290322580645,-3,3,-1.0345803562825906,1.0345803562825906,6,0,-3,6,3,-6,6,-2.069160712565181,0,3,1.0347010646411885,1,Right,2.3465,2,2.963196938765292
7,R_3PvrQaRZu0fAMjC,32,j,2,0,4128,Safe injection locations,Allow alt-right speakers on campus,-1,1,3,7,3,1.0345803562825906,0.6341716202639542,3.3870967741935485,5.161290322580645,0,7,3,-0.15327116389371717,0.6341716202639542,3.3870967741935485,5.161290322580645,-3,0,-1.0345803562825906,-0.15327116389371717,3,-3,0,3,0,-3,3,-0.8813091923888734,3,0,0,1,Right,4.128,5,2.963196938765292
7,R_3PvrQaRZu0fAMjC,33,f,1,1,3085.2000000476837,On campus concealed carry,Remove public Confederate memorials,-1,-1,-3,0,4,-1.341122684070025,-1.7801308638988187,3.3870967741935485,5.161290322580645,3,7,4,1.0345803562825906,0.6341716202639542,3.3870967741935485,5.161290322580645,3,-3,1.341122684070025,-1.0345803562825906,6,-6,-7,6,7,6,-6,2.3757030403526156,-6,-7,-2.414302484162773,0,Left,3.0852000000476836,3,2.963196938765292
7,R_3PvrQaRZu0fAMjC,34,f,1,1,2636.300000190735,Mandatory vaccinations,Black Lives Matter,1,1,3,4,3,1.0345803562825906,-0.40052944437723415,3.3870967741935485,5.161290322580645,3,8,4,1.0345803562825906,0.9790719751443503,3.3870967741935485,5.161290322580645,3,3,1.0345803562825906,1.0345803562825906,0,0,-4,0,4,0,0,0,0,-4,-1.3796014195215844,0,Left,2.636300000190735,3,2.963196938765292
7,R_3PvrQaRZu0fAMjC,35,f,1,1,1824.3999998569489,Physician-assisted suicide,Mandatory vaccinations,1,-1,3,7,3,1.0345803562825906,0.6341716202639542,3.3870967741935485,5.161290322580645,3,4,3,1.0345803562825906,-0.40052944437723415,3.3870967741935485,5.161290322580645,3,-3,1.0345803562825906,-1.0345803562825906,6,0,3,6,3,6,-6,2.069160712565181,0,3,1.0347010646411885,0,Left,1.824399999856949,1,2.963196938765292
7,R_3PvrQaRZu0fAMjC,36,f,1,1,1542.1000001430511,Climate change legislation,Safe injection locations,1,1,3,5,4,1.0345803562825906,-0.055629089496838036,3.3870967741935485,5.161290322580645,3,7,3,1.0345803562825906,0.6341716202639542,3.3870967741935485,5.161290322580645,3,3,1.0345803562825906,1.0345803562825906,0,0,-2,0,2,0,0,0,0,-2,-0.6898007097607923,0,Left,1.5421000001430512,1,2.963196938765292
7,R_3PvrQaRZu0fAMjC,37,f,1,1,3650.9000000953674,Recognize Jerusalem as capital of Israel,Student worker unionization,-1,-1,-3,8,3,-1.341122684070025,0.9790719751443503,3.3870967741935485,5.161290322580645,2,6,1,0.6386298495571547,0.2892712653835581,3.3870967741935485,5.161290322580645,3,-2,1.341122684070025,-0.6386298495571547,5,-5,2,5,2,5,-5,1.9797525336271797,-5,2,0.6898007097607922,0,Left,3.6509000000953673,4,2.963196938765292
7,R_3PvrQaRZu0fAMjC,38,f,1,1,4371.100000143051,"Boycott, Divest, and Sanction Israel",Stop police brutality,-1,-1,2,8,3,0.6386298495571547,0.9790719751443503,3.3870967741935485,5.161290322580645,3,7,3,1.0345803562825906,0.6341716202639542,3.3870967741935485,5.161290322580645,-2,-3,-0.6386298495571547,-1.0345803562825906,1,-1,1,1,1,1,-1,0.39595050672543586,-1,1,0.34490035488039605,0,Left,4.371100000143051,5,2.963196938765292
7,R_3PvrQaRZu0fAMjC,39,f,1,1,3232.800000190735,Affirmative action,Recognize Jerusalem as capital of Israel,-1,-1,-2,0,1,-0.945172177344589,-1.7801308638988187,3.3870967741935485,5.161290322580645,-3,8,3,-1.341122684070025,0.9790719751443503,3.3870967741935485,5.161290322580645,2,3,0.945172177344589,1.341122684070025,-1,1,-8,1,8,-1,1,-0.39595050672543597,1,-8,-2.759202839043169,0,Left,3.2328000001907347,4,2.963196938765292
7,R_3PvrQaRZu0fAMjC,40,j,2,0,5021.299999952316,Mandatory trigger warnings,Recognize Jerusalem as capital of Israel,-1,-1,-1,8,3,-0.5492216706191531,0.9790719751443503,3.3870967741935485,5.161290322580645,-3,8,3,-1.341122684070025,0.9790719751443503,3.3870967741935485,5.161290322580645,1,3,0.5492216706191531,1.341122684070025,2,-2,0,2,0,-2,2,-0.7919010134508719,2,0,0,1,Right,5.0212999999523165,5,2.963196938765292
7,R_3PvrQaRZu0fAMjC,41,f,1,1,4649.200000047684,War on Drugs,Gun-free campus police,-1,-1,-3,6,4,-1.341122684070025,0.2892712653835581,3.3870967741935485,5.161290322580645,3,8,3,1.0345803562825906,0.9790719751443503,3.3870967741935485,5.161290322580645,3,-3,1.341122684070025,-1.0345803562825906,6,-6,-2,6,2,6,-6,2.3757030403526156,-6,-2,-0.6898007097607922,0,Left,4.649200000047684,5,2.963196938765292
7,R_3PvrQaRZu0fAMjC,42,f,1,1,3100.699999809265,Stop police brutality,Mandatory vaccinations,-1,-1,3,7,3,1.0345803562825906,0.6341716202639542,3.3870967741935485,5.161290322580645,3,4,3,1.0345803562825906,-0.40052944437723415,3.3870967741935485,5.161290322580645,-3,-3,-1.0345803562825906,-1.0345803562825906,0,0,3,0,3,0,0,0,0,3,1.0347010646411885,0,Left,3.1006999998092653,4,2.963196938765292
7,R_3PvrQaRZu0fAMjC,43,f,1,1,2880.5,Physician-assisted suicide,"Boycott, Divest, and Sanction Israel",1,1,3,7,3,1.0345803562825906,0.6341716202639542,3.3870967741935485,5.161290322580645,2,8,3,0.6386298495571547,0.9790719751443503,3.3870967741935485,5.161290322580645,3,2,1.0345803562825906,0.6386298495571547,1,1,-1,1,1,1,-1,0.39595050672543586,1,-1,-0.34490035488039605,0,Left,2.8805,3,2.963196938765292
7,R_3PvrQaRZu0fAMjC,44,f,1,1,3006,Remove public Confederate memorials,Lift COVID lockdowns,1,-1,3,7,4,1.0345803562825906,0.6341716202639542,3.3870967741935485,5.161290322580645,-3,2,4,-1.341122684070025,-1.0903301541380264,3.3870967741935485,5.161290322580645,3,3,1.0345803562825906,1.341122684070025,0,6,5,0,5,0,0,-0.3065423277874344,6,5,1.7245017744019806,0,Left,3.006,3,2.963196938765292
7,R_3PvrQaRZu0fAMjC,45,j,2,0,3976.7999999523163,Recognize Jerusalem as capital of Israel,Defund Planned Parenthood,-1,-1,-3,8,3,-1.341122684070025,0.9790719751443503,3.3870967741935485,5.161290322580645,-3,6,1,-1.341122684070025,0.2892712653835581,3.3870967741935485,5.161290322580645,3,3,1.341122684070025,1.341122684070025,0,0,-2,0,2,0,0,0,0,2,0.6898007097607922,1,Right,3.9767999999523163,4,2.963196938765292
7,R_3PvrQaRZu0fAMjC,46,j,2,0,3541.2999999523163,Abolishing fraternities,Stop police brutality,-1,1,-2,4,2,-0.945172177344589,-0.40052944437723415,3.3870967741935485,5.161290322580645,3,7,3,1.0345803562825906,0.6341716202639542,3.3870967741935485,5.161290322580645,2,3,0.945172177344589,1.0345803562825906,1,5,3,1,3,-1,1,-0.08940817893800157,-5,-3,-1.0347010646411885,1,Right,3.5412999999523165,4,2.963196938765292
7,R_3PvrQaRZu0fAMjC,47,j,2,0,5348,Physician-assisted suicide,Mandatory trigger warnings,-1,-1,3,7,3,1.0345803562825906,0.6341716202639542,3.3870967741935485,5.161290322580645,-1,8,3,-0.5492216706191531,0.9790719751443503,3.3870967741935485,5.161290322580645,-3,1,-1.0345803562825906,0.5492216706191531,4,-4,1,4,1,-4,4,-1.5838020269017437,4,-1,-0.34490035488039605,1,Right,5.348,5,2.963196938765292
7,R_3PvrQaRZu0fAMjC,48,f,1,1,3076.7999999523163,Recognize Jerusalem as capital of Israel,Physician-assisted suicide,-1,1,-3,8,3,-1.341122684070025,0.9790719751443503,3.3870967741935485,5.161290322580645,3,7,3,1.0345803562825906,0.6341716202639542,3.3870967741935485,5.161290322580645,3,3,1.341122684070025,1.0345803562825906,0,-6,1,0,1,0,0,0.3065423277874344,-6,1,0.34490035488039605,0,Left,3.0767999999523163,3,2.963196938765292
7,R_3PvrQaRZu0fAMjC,49,j,2,0,3868.2999999523163,Climate change legislation,Physician-assisted suicide,-1,1,3,5,4,1.0345803562825906,-0.055629089496838036,3.3870967741935485,5.161290322580645,3,7,3,1.0345803562825906,0.6341716202639542,3.3870967741935485,5.161290322580645,-3,3,-1.0345803562825906,1.0345803562825906,6,0,2,6,2,-6,6,-2.069160712565181,0,-2,-0.6898007097607923,1,Right,3.8682999999523164,4,2.963196938765292
7,R_3PvrQaRZu0fAMjC,50,j,2,0,3576.7999999523163,Ban on ethnic Halloween costumes,Physician-assisted suicide,-1,1,2,8,2,0.6386298495571547,0.9790719751443503,3.3870967741935485,5.161290322580645,3,7,3,1.0345803562825906,0.6341716202639542,3.3870967741935485,5.161290322580645,-2,3,-0.6386298495571547,1.0345803562825906,5,1,-1,5,1,-5,5,-1.6732102058397453,-1,1,0.34490035488039605,1,Right,3.5767999999523163,4,2.963196938765292
7,R_3PvrQaRZu0fAMjC,51,f,1,1,4330.300000190735,Gun-free campus police,Black Lives Matter,1,-1,3,8,3,1.0345803562825906,0.9790719751443503,3.3870967741935485,5.161290322580645,3,8,4,1.0345803562825906,0.9790719751443503,3.3870967741935485,5.161290322580645,3,-3,1.0345803562825906,-1.0345803562825906,6,0,0,6,0,6,-6,2.069160712565181,0,0,0,0,Left,4.330300000190735,5,2.963196938765292
7,R_3PvrQaRZu0fAMjC,52,f,1,1,5868.200000047684,Bathrooms restricted based on biological sex,On campus concealed carry,1,1,-3,8,3,-1.341122684070025,0.9790719751443503,3.3870967741935485,5.161290322580645,-3,0,4,-1.341122684070025,-1.7801308638988187,3.3870967741935485,5.161290322580645,-3,-3,-1.341122684070025,-1.341122684070025,0,0,8,0,8,0,0,0,0,8,2.759202839043169,0,Left,5.8682000000476835,5,2.963196938765292
7,R_3PvrQaRZu0fAMjC,53,f,1,1,4114,Stop police brutality,Allow alt-right speakers on campus,1,1,3,7,3,1.0345803562825906,0.6341716202639542,3.3870967741935485,5.161290322580645,0,7,3,-0.15327116389371717,0.6341716202639542,3.3870967741935485,5.161290322580645,3,0,1.0345803562825906,-0.15327116389371717,3,3,0,3,0,3,-3,1.1878515201763078,3,0,0,0,Left,4.114,5,2.963196938765292
7,R_3PvrQaRZu0fAMjC,54,f,1,1,5317.200000047684,Mandatory training on sexual consent,Stop police brutality,-1,-1,0,0,1,-0.15327116389371717,-1.7801308638988187,3.3870967741935485,5.161290322580645,3,7,3,1.0345803562825906,0.6341716202639542,3.3870967741935485,5.161290322580645,-0,-3,0.15327116389371717,-1.0345803562825906,3,-3,-7,3,7,3,-3,1.1878515201763078,-3,-7,-2.414302484162773,0,Left,5.317200000047683,5,2.963196938765292
7,R_3PvrQaRZu0fAMjC,55,f,1,1,1731.6000001430511,Climate change legislation,Recognize Jerusalem as capital of Israel,1,1,3,5,4,1.0345803562825906,-0.055629089496838036,3.3870967741935485,5.161290322580645,-3,8,3,-1.341122684070025,0.9790719751443503,3.3870967741935485,5.161290322580645,3,-3,1.0345803562825906,-1.341122684070025,6,6,-3,6,3,6,-6,2.3757030403526156,6,-3,-1.0347010646411883,0,Left,1.7316000001430512,1,2.963196938765292
7,R_3PvrQaRZu0fAMjC,56,j,2,0,2657.399999856949,Increased Gun regulations,Stop police brutality,-1,1,3,0,4,1.0345803562825906,-1.7801308638988187,3.3870967741935485,5.161290322580645,3,7,3,1.0345803562825906,0.6341716202639542,3.3870967741935485,5.161290322580645,-3,3,-1.0345803562825906,1.0345803562825906,6,0,7,6,7,-6,6,-2.069160712565181,0,-7,-2.414302484162773,1,Right,2.6573999998569486,3,2.963196938765292
7,R_3PvrQaRZu0fAMjC,57,f,1,1,2885.600000143051,Stop police brutality,Mandatory trigger warnings,1,-1,3,7,3,1.0345803562825906,0.6341716202639542,3.3870967741935485,5.161290322580645,-1,8,3,-0.5492216706191531,0.9790719751443503,3.3870967741935485,5.161290322580645,3,1,1.0345803562825906,0.5492216706191531,2,4,-1,2,1,2,-2,0.48535868566343754,4,-1,-0.34490035488039605,0,Left,2.885600000143051,3,2.963196938765292
7,R_3PvrQaRZu0fAMjC,58,f,1,1,3003.5,Hardening schools/Arming teachers,Bathrooms restricted based on biological sex,-1,1,-3,2,3,-1.341122684070025,-1.0903301541380264,3.3870967741935485,5.161290322580645,-3,8,3,-1.341122684070025,0.9790719751443503,3.3870967741935485,5.161290322580645,3,-3,1.341122684070025,-1.341122684070025,6,0,-6,6,6,6,-6,2.68224536814005,0,-6,-2.0694021292823765,0,Left,3.0035,3,2.963196938765292
7,R_3PvrQaRZu0fAMjC,59,f,1,1,3570.7999999523163,Defund the police,Recognize Jerusalem as capital of Israel,1,-1,0,6,2,-0.15327116389371717,0.2892712653835581,3.3870967741935485,5.161290322580645,-3,8,3,-1.341122684070025,0.9790719751443503,3.3870967741935485,5.161290322580645,0,3,-0.15327116389371717,1.341122684070025,-3,3,-2,3,2,-3,3,-1.4943938479637422,3,-2,-0.6898007097607922,0,Left,3.570799999952316,4,2.963196938765292
7,R_3PvrQaRZu0fAMjC,60,j,2,0,3384.7000000476837,Hardening schools/Arming teachers,Gun-free campus police,1,-1,-3,2,3,-1.341122684070025,-1.0903301541380264,3.3870967741935485,5.161290322580645,3,8,3,1.0345803562825906,0.9790719751443503,3.3870967741935485,5.161290322580645,-3,-3,-1.341122684070025,-1.0345803562825906,0,6,6,0,6,0,0,-0.3065423277874344,-6,-6,-2.0694021292823765,1,Right,3.3847000000476837,4,2.963196938765292
7,R_3PvrQaRZu0fAMjC,61,f,1,1,2017.7999999523163,Black Lives Matter,Increased Gun regulations,1,-1,3,8,4,1.0345803562825906,0.9790719751443503,3.3870967741935485,5.161290322580645,3,0,4,1.0345803562825906,-1.7801308638988187,3.3870967741935485,5.161290322580645,3,-3,1.0345803562825906,-1.0345803562825906,6,0,8,6,8,6,-6,2.069160712565181,0,8,2.759202839043169,0,Left,2.017799999952316,2,2.963196938765292
7,R_3PvrQaRZu0fAMjC,62,f,1,1,1102,Black Lives Matter,Mask mandates,1,-1,3,8,4,1.0345803562825906,0.9790719751443503,3.3870967741935485,5.161290322580645,0,0,3,-0.15327116389371717,-1.7801308638988187,3.3870967741935485,5.161290322580645,3,-0,1.0345803562825906,0.15327116389371717,3,3,8,3,8,3,-3,0.8813091923888734,3,8,2.759202839043169,0,Left,1.102,1,2.963196938765292
7,R_3PvrQaRZu0fAMjC,63,j,2,0,4789,Increased Gun regulations,Recognize Jerusalem as capital of Israel,1,-1,3,0,4,1.0345803562825906,-1.7801308638988187,3.3870967741935485,5.161290322580645,-3,8,3,-1.341122684070025,0.9790719751443503,3.3870967741935485,5.161290322580645,3,3,1.0345803562825906,1.341122684070025,0,-6,8,0,8,0,0,-0.3065423277874344,6,-8,-2.759202839043169,1,Right,4.789,5,2.963196938765292
7,R_3PvrQaRZu0fAMjC,64,f,1,1,2601.4000000953674,Mandatory vaccinations,Recognize Jerusalem as capital of Israel,-1,1,3,4,3,1.0345803562825906,-0.40052944437723415,3.3870967741935485,5.161290322580645,-3,8,3,-1.341122684070025,0.9790719751443503,3.3870967741935485,5.161290322580645,-3,-3,-1.0345803562825906,-1.341122684070025,0,6,-4,0,4,0,0,0.3065423277874344,6,-4,-1.3796014195215844,0,Left,2.6014000000953676,3,2.963196938765292
7,R_3PvrQaRZu0fAMjC,65,f,1,1,3256.0999999046326,Stop police brutality,Student worker unionization,1,-1,3,7,3,1.0345803562825906,0.6341716202639542,3.3870967741935485,5.161290322580645,2,6,1,0.6386298495571547,0.2892712653835581,3.3870967741935485,5.161290322580645,3,-2,1.0345803562825906,-0.6386298495571547,5,1,1,5,1,5,-5,1.6732102058397453,1,1,0.34490035488039616,0,Left,3.2560999999046327,4,2.963196938765292
7,R_3PvrQaRZu0fAMjC,67,f,1,1,3640.7999999523163,Remove public Confederate memorials,Hardening schools/Arming teachers,-1,1,3,7,4,1.0345803562825906,0.6341716202639542,3.3870967741935485,5.161290322580645,-3,2,3,-1.341122684070025,-1.0903301541380264,3.3870967741935485,5.161290322580645,-3,-3,-1.0345803562825906,-1.341122684070025,0,6,5,0,5,0,0,0.3065423277874344,6,5,1.7245017744019806,0,Left,3.6407999999523164,4,2.963196938765292
7,R_3PvrQaRZu0fAMjC,68,j,2,0,2963.699999809265,Physician-assisted suicide,Build southern border wall,1,-1,3,7,3,1.0345803562825906,0.6341716202639542,3.3870967741935485,5.161290322580645,-3,6,3,-1.341122684070025,0.2892712653835581,3.3870967741935485,5.161290322580645,3,3,1.0345803562825906,1.341122684070025,0,-6,-1,0,1,0,0,-0.3065423277874344,6,1,0.34490035488039616,1,Right,2.9636999998092652,3,2.963196938765292
7,R_3PvrQaRZu0fAMjC,69,f,1,1,3798.399999856949,Student worker unionization,Stop police brutality,1,-1,2,6,1,0.6386298495571547,0.2892712653835581,3.3870967741935485,5.161290322580645,3,7,3,1.0345803562825906,0.6341716202639542,3.3870967741935485,5.161290322580645,2,-3,0.6386298495571547,-1.0345803562825906,5,-1,-1,5,1,5,-5,1.6732102058397453,-1,-1,-0.34490035488039616,0,Left,3.7983999998569487,4,2.963196938765292
7,R_3PvrQaRZu0fAMjC,70,j,2,0,2687.7000000476837,Physician-assisted suicide,Affirmative action,-1,1,3,7,3,1.0345803562825906,0.6341716202639542,3.3870967741935485,5.161290322580645,-2,0,1,-0.945172177344589,-1.7801308638988187,3.3870967741935485,5.161290322580645,-3,-2,-1.0345803562825906,-0.945172177344589,1,-5,-7,1,7,-1,1,-0.08940817893800157,5,7,2.414302484162773,1,Right,2.6877000000476836,3,2.963196938765292
7,R_3PvrQaRZu0fAMjC,71,j,2,0,5006.599999904633,Bathrooms restricted based on biological sex,Mandatory trigger warnings,1,-1,-3,8,3,-1.341122684070025,0.9790719751443503,3.3870967741935485,5.161290322580645,-1,8,3,-0.5492216706191531,0.9790719751443503,3.3870967741935485,5.161290322580645,-3,1,-1.341122684070025,0.5492216706191531,4,2,0,4,0,-4,4,-1.890344354689178,-2,0,0,1,Right,5.0065999999046324,5,2.963196938765292
7,R_3PvrQaRZu0fAMjC,72,j,2,0,3080.2000000476837,Ban on research with animals,Black Lives Matter,-1,1,0,2,1,-0.15327116389371717,-1.0903301541380264,3.3870967741935485,5.161290322580645,3,8,4,1.0345803562825906,0.9790719751443503,3.3870967741935485,5.161290322580645,-0,3,0.15327116389371717,1.0345803562825906,3,3,6,3,6,-3,3,-0.8813091923888734,-3,-6,-2.0694021292823765,1,Right,3.0802000000476837,3,2.963196938765292
7,R_3PvrQaRZu0fAMjC,73,j,2,0,3467.9000000953674,Bathrooms restricted based on biological sex,Mandatory training on sexual consent,1,-1,-3,8,3,-1.341122684070025,0.9790719751443503,3.3870967741935485,5.161290322580645,0,0,1,-0.15327116389371717,-1.7801308638988187,3.3870967741935485,5.161290322580645,-3,-0,-1.341122684070025,0.15327116389371717,3,3,-8,3,8,-3,3,-1.4943938479637422,-3,8,2.759202839043169,1,Right,3.4679000000953675,4,2.963196938765292
7,R_3PvrQaRZu0fAMjC,74,j,2,0,1907,Physician-assisted suicide,Physician-assisted suicide,-1,1,3,7,3,1.0345803562825906,0.6341716202639542,3.3870967741935485,5.161290322580645,3,7,3,1.0345803562825906,0.6341716202639542,3.3870967741935485,5.161290322580645,-3,3,-1.0345803562825906,1.0345803562825906,6,0,0,6,0,-6,6,-2.069160712565181,0,0,0,1,Right,1.907,2,2.963196938765292
7,R_3PvrQaRZu0fAMjC,75,j,2,0,2862.100000143051,Climate change legislation,Bathrooms restricted based on biological sex,-1,-1,3,5,4,1.0345803562825906,-0.055629089496838036,3.3870967741935485,5.161290322580645,-3,8,3,-1.341122684070025,0.9790719751443503,3.3870967741935485,5.161290322580645,-3,3,-1.0345803562825906,1.341122684070025,6,-6,3,6,3,-6,6,-2.3757030403526156,6,-3,-1.0347010646411883,1,Right,2.862100000143051,3,2.963196938765292
7,R_3PvrQaRZu0fAMjC,76,f,1,1,2730.4000000953674,Physician-assisted suicide,Mandatory training on sexual consent,1,1,3,7,3,1.0345803562825906,0.6341716202639542,3.3870967741935485,5.161290322580645,0,0,1,-0.15327116389371717,-1.7801308638988187,3.3870967741935485,5.161290322580645,3,0,1.0345803562825906,-0.15327116389371717,3,3,7,3,7,3,-3,1.1878515201763078,3,7,2.414302484162773,0,Left,2.7304000000953677,3,2.963196938765292
7,R_3PvrQaRZu0fAMjC,77,f,1,1,1846.0999999046326,Black Lives Matter,Student worker unionization,1,1,3,8,4,1.0345803562825906,0.9790719751443503,3.3870967741935485,5.161290322580645,2,6,1,0.6386298495571547,0.2892712653835581,3.3870967741935485,5.161290322580645,3,2,1.0345803562825906,0.6386298495571547,1,1,2,1,2,1,-1,0.39595050672543586,1,2,0.6898007097607922,0,Left,1.8460999999046326,1,2.963196938765292
7,R_3PvrQaRZu0fAMjC,78,f,1,1,1510.2999999523163,Physician-assisted suicide,Gun-free campus police,1,-1,3,7,3,1.0345803562825906,0.6341716202639542,3.3870967741935485,5.161290322580645,3,8,3,1.0345803562825906,0.9790719751443503,3.3870967741935485,5.161290322580645,3,-3,1.0345803562825906,-1.0345803562825906,6,0,-1,6,1,6,-6,2.069160712565181,0,-1,-0.34490035488039605,0,Left,1.5102999999523163,1,2.963196938765292
7,R_3PvrQaRZu0fAMjC,79,f,1,1,1644.9000000953674,Black Lives Matter,Lift COVID lockdowns,1,-1,3,8,4,1.0345803562825906,0.9790719751443503,3.3870967741935485,5.161290322580645,-3,2,4,-1.341122684070025,-1.0903301541380264,3.3870967741935485,5.161290322580645,3,3,1.0345803562825906,1.341122684070025,0,6,6,0,6,0,0,-0.3065423277874344,6,6,2.0694021292823765,0,Left,1.6449000000953675,1,2.963196938765292
7,R_3PvrQaRZu0fAMjC,80,f,1,1,2119.2000000476837,Abolishing fraternities,Gun-free campus police,1,-1,-2,4,2,-0.945172177344589,-0.40052944437723415,3.3870967741935485,5.161290322580645,3,8,3,1.0345803562825906,0.9790719751443503,3.3870967741935485,5.161290322580645,-2,-3,-0.945172177344589,-1.0345803562825906,1,-5,-4,1,4,1,-1,0.08940817893800157,-5,-4,-1.3796014195215844,0,Left,2.119200000047684,2,2.963196938765292
7,R_3PvrQaRZu0fAMjC,81,f,1,1,2245.7999999523163,Physician-assisted suicide,Ban on research with animals,1,-1,3,7,3,1.0345803562825906,0.6341716202639542,3.3870967741935485,5.161290322580645,0,2,1,-0.15327116389371717,-1.0903301541380264,3.3870967741935485,5.161290322580645,3,-0,1.0345803562825906,0.15327116389371717,3,3,5,3,5,3,-3,0.8813091923888734,3,5,1.7245017744019806,0,Left,2.2457999999523164,2,2.963196938765292
7,R_3PvrQaRZu0fAMjC,82,f,1,1,1965.7999999523163,Remove public Confederate memorials,Mandatory trigger warnings,1,1,3,7,4,1.0345803562825906,0.6341716202639542,3.3870967741935485,5.161290322580645,-1,8,3,-0.5492216706191531,0.9790719751443503,3.3870967741935485,5.161290322580645,3,-1,1.0345803562825906,-0.5492216706191531,4,4,-1,4,1,4,-4,1.5838020269017437,4,-1,-0.34490035488039605,0,Left,1.9657999999523164,2,2.963196938765292
7,R_3PvrQaRZu0fAMjC,83,f,1,1,2542.0999999046326,Safe injection locations,Affirmative action,1,1,3,7,3,1.0345803562825906,0.6341716202639542,3.3870967741935485,5.161290322580645,-2,0,1,-0.945172177344589,-1.7801308638988187,3.3870967741935485,5.161290322580645,3,-2,1.0345803562825906,-0.945172177344589,5,5,7,5,7,5,-5,1.9797525336271797,5,7,2.414302484162773,0,Left,2.5420999999046328,2,2.963196938765292
7,R_3PvrQaRZu0fAMjC,84,f,1,1,3338.5999999046326,Stop police brutality,Climate change legislation,-1,-1,3,7,3,1.0345803562825906,0.6341716202639542,3.3870967741935485,5.161290322580645,3,5,4,1.0345803562825906,-0.055629089496838036,3.3870967741935485,5.161290322580645,-3,-3,-1.0345803562825906,-1.0345803562825906,0,0,2,0,2,0,0,0,0,2,0.6898007097607923,0,Left,3.3385999999046327,4,2.963196938765292
7,R_3PvrQaRZu0fAMjC,85,f,1,1,2117.0999999046326,Student worker unionization,Bathrooms restricted based on biological sex,1,1,2,6,1,0.6386298495571547,0.2892712653835581,3.3870967741935485,5.161290322580645,-3,8,3,-1.341122684070025,0.9790719751443503,3.3870967741935485,5.161290322580645,2,-3,0.6386298495571547,-1.341122684070025,5,5,-2,5,2,5,-5,1.9797525336271797,5,-2,-0.6898007097607922,0,Left,2.1170999999046325,2,2.963196938765292
7,R_3PvrQaRZu0fAMjC,86,j,2,0,4686.5,Abolishing fraternities,Physician-assisted suicide,1,1,-2,4,2,-0.945172177344589,-0.40052944437723415,3.3870967741935485,5.161290322580645,3,7,3,1.0345803562825906,0.6341716202639542,3.3870967741935485,5.161290322580645,-2,3,-0.945172177344589,1.0345803562825906,5,5,3,5,3,-5,5,-1.9797525336271797,-5,-3,-1.0347010646411885,1,Right,4.6865,5,2.963196938765292
7,R_3PvrQaRZu0fAMjC,87,j,2,0,3253.5999999046326,"Boycott, Divest, and Sanction Israel",Gun-free campus police,-1,1,2,8,3,0.6386298495571547,0.9790719751443503,3.3870967741935485,5.161290322580645,3,8,3,1.0345803562825906,0.9790719751443503,3.3870967741935485,5.161290322580645,-2,3,-0.6386298495571547,1.0345803562825906,5,1,0,5,0,-5,5,-1.6732102058397453,-1,0,0,1,Right,3.2535999999046328,4,2.963196938765292
7,R_3PvrQaRZu0fAMjC,88,j,2,0,2085.7000000476837,Abolishing fraternities,Gun-free campus police,-1,1,-2,4,2,-0.945172177344589,-0.40052944437723415,3.3870967741935485,5.161290322580645,3,8,3,1.0345803562825906,0.9790719751443503,3.3870967741935485,5.161290322580645,2,3,0.945172177344589,1.0345803562825906,1,5,4,1,4,-1,1,-0.08940817893800157,-5,-4,-1.3796014195215844,1,Right,2.0857000000476837,2,2.963196938765292
7,R_3PvrQaRZu0fAMjC,89,f,1,1,3044.2999999523163,Remove public Confederate memorials,Black Lives Matter,-1,-1,3,7,4,1.0345803562825906,0.6341716202639542,3.3870967741935485,5.161290322580645,3,8,4,1.0345803562825906,0.9790719751443503,3.3870967741935485,5.161290322580645,-3,-3,-1.0345803562825906,-1.0345803562825906,0,0,-1,0,1,0,0,0,0,-1,-0.34490035488039605,0,Left,3.044299999952316,3,2.963196938765292
7,R_3PvrQaRZu0fAMjC,90,f,1,1,2653.600000143051,Defund the police,Stop police brutality,-1,-1,0,6,2,-0.15327116389371717,0.2892712653835581,3.3870967741935485,5.161290322580645,3,7,3,1.0345803562825906,0.6341716202639542,3.3870967741935485,5.161290322580645,-0,-3,0.15327116389371717,-1.0345803562825906,3,-3,-1,3,1,3,-3,1.1878515201763078,-3,-1,-0.34490035488039616,0,Left,2.6536000001430513,3,2.963196938765292
7,R_3PvrQaRZu0fAMjC,91,j,2,0,3226.7000000476837,Abolishing fraternities,Recognize Jerusalem as capital of Israel,1,-1,-2,4,2,-0.945172177344589,-0.40052944437723415,3.3870967741935485,5.161290322580645,-3,8,3,-1.341122684070025,0.9790719751443503,3.3870967741935485,5.161290322580645,-2,3,-0.945172177344589,1.341122684070025,5,-1,4,5,4,-5,5,-2.286294861414614,1,-4,-1.3796014195215844,1,Right,3.2267000000476838,4,2.963196938765292
7,R_3PvrQaRZu0fAMjC,92,j,2,0,5789.899999856949,Allow alt-right speakers on campus,Bathrooms restricted based on biological sex,1,-1,0,7,3,-0.15327116389371717,0.6341716202639542,3.3870967741935485,5.161290322580645,-3,8,3,-1.341122684070025,0.9790719751443503,3.3870967741935485,5.161290322580645,0,3,-0.15327116389371717,1.341122684070025,3,-3,1,3,1,-3,3,-1.4943938479637422,3,-1,-0.34490035488039605,1,Right,5.7898999998569485,5,2.963196938765292
7,R_3PvrQaRZu0fAMjC,93,j,2,0,4492.299999952316,Black Lives Matter,"Boycott, Divest, and Sanction Israel",-1,-1,3,8,4,1.0345803562825906,0.9790719751443503,3.3870967741935485,5.161290322580645,2,8,3,0.6386298495571547,0.9790719751443503,3.3870967741935485,5.161290322580645,-3,-2,-1.0345803562825906,-0.6386298495571547,1,-1,0,1,0,-1,1,-0.39595050672543586,1,0,0,1,Right,4.4922999999523165,5,2.963196938765292
7,R_3PvrQaRZu0fAMjC,94,f,1,1,1915.7999999523163,Affirmative action,Bathrooms restricted based on biological sex,1,1,-2,0,1,-0.945172177344589,-1.7801308638988187,3.3870967741935485,5.161290322580645,-3,8,3,-1.341122684070025,0.9790719751443503,3.3870967741935485,5.161290322580645,-2,-3,-0.945172177344589,-1.341122684070025,1,1,-8,1,8,1,-1,0.39595050672543597,1,-8,-2.759202839043169,0,Left,1.9157999999523163,2,2.963196938765292
7,R_3PvrQaRZu0fAMjC,95,f,1,1,2208.7000000476837,Mandatory vaccinations,Bathrooms restricted based on biological sex,1,1,3,4,3,1.0345803562825906,-0.40052944437723415,3.3870967741935485,5.161290322580645,-3,8,3,-1.341122684070025,0.9790719751443503,3.3870967741935485,5.161290322580645,3,-3,1.0345803562825906,-1.341122684070025,6,6,-4,6,4,6,-6,2.3757030403526156,6,-4,-1.3796014195215844,0,Left,2.2087000000476835,2,2.963196938765292
7,R_3PvrQaRZu0fAMjC,96,f,1,1,2155.4000000953674,Mandatory vaccinations,Stop police brutality,1,1,3,4,3,1.0345803562825906,-0.40052944437723415,3.3870967741935485,5.161290322580645,3,7,3,1.0345803562825906,0.6341716202639542,3.3870967741935485,5.161290322580645,3,3,1.0345803562825906,1.0345803562825906,0,0,-3,0,3,0,0,0,0,-3,-1.0347010646411885,0,Left,2.1554000000953675,2,2.963196938765292
7,R_3PvrQaRZu0fAMjC,97,f,1,1,5517.5,Mandatory trigger warnings,Safe injection locations,1,-1,-1,8,3,-0.5492216706191531,0.9790719751443503,3.3870967741935485,5.161290322580645,3,7,3,1.0345803562825906,0.6341716202639542,3.3870967741935485,5.161290322580645,-1,-3,-0.5492216706191531,-1.0345803562825906,2,-4,1,2,1,2,-2,0.48535868566343754,-4,1,0.34490035488039605,0,Left,5.5175,5,2.963196938765292
7,R_3PvrQaRZu0fAMjC,98,j,2,0,4183.799999952316,Lift COVID lockdowns,Stop police brutality,1,1,-3,2,4,-1.341122684070025,-1.0903301541380264,3.3870967741935485,5.161290322580645,3,7,3,1.0345803562825906,0.6341716202639542,3.3870967741935485,5.161290322580645,-3,3,-1.341122684070025,1.0345803562825906,6,6,5,6,5,-6,6,-2.3757030403526156,-6,-5,-1.7245017744019806,1,Right,4.183799999952316,5,2.963196938765292
7,R_3PvrQaRZu0fAMjC,99,f,1,1,1348.2999999523163,Affirmative action,Bathrooms restricted based on biological sex,1,-1,-2,0,1,-0.945172177344589,-1.7801308638988187,3.3870967741935485,5.161290322580645,-3,8,3,-1.341122684070025,0.9790719751443503,3.3870967741935485,5.161290322580645,-2,3,-0.945172177344589,1.341122684070025,-5,1,-8,5,8,-5,5,-2.286294861414614,1,-8,-2.759202839043169,0,Left,1.3482999999523162,1,2.963196938765292
7,R_3PvrQaRZu0fAMjC,100,j,2,0,2484.2999999523163,Bathrooms restricted based on biological sex,Remove Christopher Columbus statues,1,1,-3,8,3,-1.341122684070025,0.9790719751443503,3.3870967741935485,5.161290322580645,2,8,2,0.6386298495571547,0.9790719751443503,3.3870967741935485,5.161290322580645,-3,2,-1.341122684070025,0.6386298495571547,5,5,0,5,0,-5,5,-1.9797525336271797,-5,0,0,1,Right,2.484299999952316,2,2.963196938765292
6,R_3p54WiA7sYeMXtD,1,j,2,0,5831.100000143051,Remove police from schools,Increased Gun regulations,-1,1,-1,2,1,-1.156481110814518,-0.7054864947966105,3.6666666666666665,3.7037037037037037,3,8,4,1.6190735551403255,1.779052899921887,3.6666666666666665,3.7037037037037037,1,3,1.156481110814518,1.6190735551403255,2,4,6,2,6,-2,2,-0.4625924443258074,-4,-6,-2.4845393947184977,1,Right,5.831100000143051,5,2.890739393935059
6,R_3p54WiA7sYeMXtD,2,f,1,1,2797.5999999046326,Increased Gun regulations,Raise the minimum wage,1,-1,3,8,4,1.6190735551403255,1.779052899921887,3.6666666666666665,3.7037037037037037,1,4,3,0.23129622216290374,0.12269330344288877,3.6666666666666665,3.7037037037037037,3,-1,1.6190735551403255,-0.23129622216290374,4,2,4,4,4,4,-4,1.8503697773032293,2,4,1.6563595964789983,0,Left,2.7975999999046324,3,2.890739393935059
6,R_3p54WiA7sYeMXtD,3,f,1,1,4499.900000095367,Mandatory trigger warnings,Mandatory vaccinations,1,-1,2,4,3,0.9251848886516146,0.12269330344288877,3.6666666666666665,3.7037037037037037,2,6,4,0.9251848886516146,0.950873101682388,3.6666666666666665,3.7037037037037037,2,-2,0.9251848886516146,-0.9251848886516146,4,0,-2,4,2,4,-4,1.8503697773032293,0,-2,-0.8281797982394993,0,Left,4.4999000000953675,5,2.890739393935059
6,R_3p54WiA7sYeMXtD,4,j,2,0,4489.100000143051,Increased Gun regulations,Remove police from schools,-1,1,3,8,4,1.6190735551403255,1.779052899921887,3.6666666666666665,3.7037037037037037,-1,2,1,-1.156481110814518,-0.7054864947966105,3.6666666666666665,3.7037037037037037,-3,-1,-1.6190735551403255,-1.156481110814518,2,-4,-6,2,6,-2,2,-0.4625924443258074,4,6,2.4845393947184977,1,Right,4.489100000143051,5,2.890739393935059
6,R_3p54WiA7sYeMXtD,6,j,2,0,2085.399999856949,Affirmative action,Increased Gun regulations,-1,1,0,4,4,-0.46259244432580715,0.12269330344288877,3.6666666666666665,3.7037037037037037,3,8,4,1.6190735551403255,1.779052899921887,3.6666666666666665,3.7037037037037037,-0,3,0.46259244432580715,1.6190735551403255,3,3,4,3,4,-3,3,-1.1564811108145183,-3,-4,-1.6563595964789983,1,Right,2.085399999856949,2,2.890739393935059
6,R_3p54WiA7sYeMXtD,7,j,2,0,2623.5999999046326,Increased Gun regulations,Ban on research with animals,-1,-1,3,8,4,1.6190735551403255,1.779052899921887,3.6666666666666665,3.7037037037037037,2,5,3,0.9251848886516146,0.5367832025626385,3.6666666666666665,3.7037037037037037,-3,-2,-1.6190735551403255,-0.9251848886516146,1,-1,-3,1,3,-1,1,-0.6938886664887108,1,3,1.2422696973592486,1,Right,2.6235999999046324,3,2.890739393935059
6,R_3p54WiA7sYeMXtD,8,f,1,1,2450.0999999046326,Increased Gun regulations,Mandatory trigger warnings,1,1,3,8,4,1.6190735551403255,1.779052899921887,3.6666666666666665,3.7037037037037037,2,4,3,0.9251848886516146,0.12269330344288877,3.6666666666666665,3.7037037037037037,3,2,1.6190735551403255,0.9251848886516146,1,1,4,1,4,1,-1,0.6938886664887108,1,4,1.6563595964789983,0,Left,2.4500999999046327,3,2.890739393935059
6,R_3p54WiA7sYeMXtD,9,j,2,0,4249.899999856949,Increased Gun regulations,Student worker unionization,-1,-1,3,8,4,1.6190735551403255,1.779052899921887,3.6666666666666665,3.7037037037037037,1,3,2,0.23129622216290374,-0.2913965956768609,3.6666666666666665,3.7037037037037037,-3,-1,-1.6190735551403255,-0.23129622216290374,2,-2,-5,2,5,-2,2,-1.3877773329774217,2,5,2.070449495598748,1,Right,4.249899999856948,5,2.890739393935059
6,R_3p54WiA7sYeMXtD,10,j,2,0,2355.7000000476837,Increased Gun regulations,Mandatory trigger warnings,-1,1,3,8,4,1.6190735551403255,1.779052899921887,3.6666666666666665,3.7037037037037037,2,4,3,0.9251848886516146,0.12269330344288877,3.6666666666666665,3.7037037037037037,-3,2,-1.6190735551403255,0.9251848886516146,5,-1,-4,5,4,-5,5,-2.54425844379194,1,4,1.6563595964789983,1,Right,2.3557000000476838,3,2.890739393935059
6,R_3p54WiA7sYeMXtD,11,j,2,0,2795.7000000476837,Increased Gun regulations,Abortion rights,-1,1,3,8,4,1.6190735551403255,1.779052899921887,3.6666666666666665,3.7037037037037037,2,6,4,0.9251848886516146,0.950873101682388,3.6666666666666665,3.7037037037037037,-3,2,-1.6190735551403255,0.9251848886516146,5,-1,-2,5,2,-5,5,-2.54425844379194,1,2,0.828179798239499,1,Right,2.7957000000476837,3,2.890739393935059
6,R_3p54WiA7sYeMXtD,12,j,2,0,3504.100000143051,Black Lives Matter,Remove police from schools,-1,1,2,6,4,0.9251848886516146,0.950873101682388,3.6666666666666665,3.7037037037037037,-1,2,1,-1.156481110814518,-0.7054864947966105,3.6666666666666665,3.7037037037037037,-2,-1,-0.9251848886516146,-1.156481110814518,1,-3,-4,1,4,-1,1,0.23129622216290346,3,4,1.6563595964789986,1,Right,3.504100000143051,4,2.890739393935059
6,R_3p54WiA7sYeMXtD,13,f,1,1,2343.2999999523163,Tuition increases,Mandatory trigger warnings,-1,1,-3,3,3,-2.5442584437919398,-0.2913965956768609,3.6666666666666665,3.7037037037037037,2,4,3,0.9251848886516146,0.12269330344288877,3.6666666666666665,3.7037037037037037,3,2,2.5442584437919398,0.9251848886516146,1,-5,-1,1,1,1,-1,1.619073555140325,-5,-1,-0.41408989911974964,0,Left,2.343299999952316,2,2.890739393935059
6,R_3p54WiA7sYeMXtD,14,f,1,1,5567.399999856949,Abortion rights,Increased Gun regulations,-1,-1,2,6,4,0.9251848886516146,0.950873101682388,3.6666666666666665,3.7037037037037037,3,8,4,1.6190735551403255,1.779052899921887,3.6666666666666665,3.7037037037037037,-2,-3,-0.9251848886516146,-1.6190735551403255,1,-1,-2,1,2,1,-1,0.6938886664887108,-1,-2,-0.828179798239499,0,Left,5.567399999856949,5,2.890739393935059
6,R_3p54WiA7sYeMXtD,15,f,1,1,3361.5,Mask mandates,Mask mandates,1,-1,2,7,4,0.9251848886516146,1.3649630008021376,3.6666666666666665,3.7037037037037037,2,7,4,0.9251848886516146,1.3649630008021376,3.6666666666666665,3.7037037037037037,2,-2,0.9251848886516146,-0.9251848886516146,4,0,0,4,0,4,-4,1.8503697773032293,0,0,0,0,Left,3.3615,4,2.890739393935059
6,R_3p54WiA7sYeMXtD,16,j,2,0,4069.5999999046326,Tuition increases,Ban on ethnic Halloween costumes,1,1,-3,3,3,-2.5442584437919398,-0.2913965956768609,3.6666666666666665,3.7037037037037037,0,0,1,-0.46259244432580715,-1.5336662930361098,3.6666666666666665,3.7037037037037037,-3,0,-2.5442584437919398,-0.46259244432580715,3,3,-3,3,3,-3,3,-2.0816659994661326,-3,3,1.2422696973592489,1,Right,4.069599999904632,5,2.890739393935059
6,R_3p54WiA7sYeMXtD,17,j,2,0,3983.899999856949,Abortion rights,Tuition increases,-1,-1,2,6,4,0.9251848886516146,0.950873101682388,3.6666666666666665,3.7037037037037037,-3,3,3,-2.5442584437919398,-0.2913965956768609,3.6666666666666665,3.7037037037037037,-2,3,-0.9251848886516146,2.5442584437919398,5,-5,-3,5,3,-5,5,-3.4694433324435545,5,3,1.2422696973592489,1,Right,3.983899999856949,5,2.890739393935059
6,R_3p54WiA7sYeMXtD,18,f,1,1,1639.0999999046326,Ban on research with animals,Black Lives Matter,-1,-1,2,5,3,0.9251848886516146,0.5367832025626385,3.6666666666666665,3.7037037037037037,2,6,4,0.9251848886516146,0.950873101682388,3.6666666666666665,3.7037037037037037,-2,-2,-0.9251848886516146,-0.9251848886516146,0,0,-1,0,1,0,0,0,0,-1,-0.4140898991197496,0,Left,1.6390999999046325,1,2.890739393935059
6,R_3p54WiA7sYeMXtD,19,f,1,1,2330,Increased Gun regulations,Increased Gun regulations,1,-1,3,8,4,1.6190735551403255,1.779052899921887,3.6666666666666665,3.7037037037037037,3,8,4,1.6190735551403255,1.779052899921887,3.6666666666666665,3.7037037037037037,3,-3,1.6190735551403255,-1.6190735551403255,6,0,0,6,0,6,-6,3.238147110280651,0,0,0,0,Left,2.33,2,2.890739393935059
6,R_3p54WiA7sYeMXtD,20,j,2,0,2609.600000143051,Recognize Jerusalem as capital of Israel,Stop police brutality,-1,1,0,0,1,-0.46259244432580715,-1.5336662930361098,3.6666666666666665,3.7037037037037037,2,6,1,0.9251848886516146,0.950873101682388,3.6666666666666665,3.7037037037037037,-0,2,0.46259244432580715,0.9251848886516146,2,2,6,2,6,-2,2,-0.4625924443258075,-2,-6,-2.4845393947184977,1,Right,2.6096000001430513,3,2.890739393935059
6,R_3p54WiA7sYeMXtD,21,f,1,1,2128.9000000953674,Mask mandates,Abortion rights,1,-1,2,7,4,0.9251848886516146,1.3649630008021376,3.6666666666666665,3.7037037037037037,2,6,4,0.9251848886516146,0.950873101682388,3.6666666666666665,3.7037037037037037,2,-2,0.9251848886516146,-0.9251848886516146,4,0,1,4,1,4,-4,1.8503697773032293,0,1,0.4140898991197496,0,Left,2.1289000000953675,2,2.890739393935059
6,R_3p54WiA7sYeMXtD,22,j,2,0,3585.9000000953674,Black Lives Matter,Mandatory training on sexual consent,-1,-1,2,6,4,0.9251848886516146,0.950873101682388,3.6666666666666665,3.7037037037037037,1,4,4,0.23129622216290374,0.12269330344288877,3.6666666666666665,3.7037037037037037,-2,-1,-0.9251848886516146,-0.23129622216290374,1,-1,-2,1,2,-1,1,-0.693888666488711,1,2,0.8281797982394993,1,Right,3.5859000000953674,4,2.890739393935059
6,R_3p54WiA7sYeMXtD,23,f,1,1,3865.5999999046326,Tuition increases,Raise the minimum wage,-1,1,-3,3,3,-2.5442584437919398,-0.2913965956768609,3.6666666666666665,3.7037037037037037,1,4,3,0.23129622216290374,0.12269330344288877,3.6666666666666665,3.7037037037037037,3,1,2.5442584437919398,0.23129622216290374,2,-4,-1,2,1,2,-2,2.312962221629036,-4,-1,-0.41408989911974964,0,Left,3.8655999999046324,4,2.890739393935059
6,R_3p54WiA7sYeMXtD,24,f,1,1,1235.0999999046326,Abortion rights,Black Lives Matter,1,-1,2,6,4,0.9251848886516146,0.950873101682388,3.6666666666666665,3.7037037037037037,2,6,4,0.9251848886516146,0.950873101682388,3.6666666666666665,3.7037037037037037,2,-2,0.9251848886516146,-0.9251848886516146,4,0,0,4,0,4,-4,1.8503697773032293,0,0,0,0,Left,1.2350999999046326,1,2.890739393935059
6,R_3p54WiA7sYeMXtD,25,f,1,1,4332.700000047684,Increased Gun regulations,Legalization of marijuana,-1,-1,3,8,4,1.6190735551403255,1.779052899921887,3.6666666666666665,3.7037037037037037,-2,5,4,-1.850369777303229,0.5367832025626385,3.6666666666666665,3.7037037037037037,-3,2,-1.6190735551403255,1.850369777303229,-5,5,3,5,3,-5,5,-3.4694433324435545,5,3,1.2422696973592486,0,Left,4.332700000047684,5,2.890739393935059
6,R_3p54WiA7sYeMXtD,26,j,2,0,2910.2000000476837,Increased Gun regulations,Student worker unionization,-1,1,3,8,4,1.6190735551403255,1.779052899921887,3.6666666666666665,3.7037037037037037,1,3,2,0.23129622216290374,-0.2913965956768609,3.6666666666666665,3.7037037037037037,-3,1,-1.6190735551403255,0.23129622216290374,4,-2,-5,4,5,-4,4,-1.8503697773032293,2,5,2.070449495598748,1,Right,2.9102000000476838,4,2.890739393935059
6,R_3p54WiA7sYeMXtD,27,j,2,0,3825.2000000476837,Tuition increases,Bathrooms restricted based on biological sex,1,1,-3,3,3,-2.5442584437919398,-0.2913965956768609,3.6666666666666665,3.7037037037037037,1,4,3,0.23129622216290374,0.12269330344288877,3.6666666666666665,3.7037037037037037,-3,1,-2.5442584437919398,0.23129622216290374,4,4,1,4,1,-4,4,-2.7755546659548433,-4,-1,-0.41408989911974964,1,Right,3.825200000047684,4,2.890739393935059
6,R_3p54WiA7sYeMXtD,28,f,1,1,3251,Tuition increases,Raise the minimum wage,-1,-1,-3,3,3,-2.5442584437919398,-0.2913965956768609,3.6666666666666665,3.7037037037037037,1,4,3,0.23129622216290374,0.12269330344288877,3.6666666666666665,3.7037037037037037,3,-1,2.5442584437919398,-0.23129622216290374,4,-4,-1,4,1,4,-4,2.7755546659548433,-4,-1,-0.41408989911974964,0,Left,3.251,4,2.890739393935059
6,R_3p54WiA7sYeMXtD,29,j,2,0,2382.5999999046326,Remove police from schools,University Campus should be a Sanctuary,1,1,-1,2,1,-1.156481110814518,-0.7054864947966105,3.6666666666666665,3.7037037037037037,2,6,3,0.9251848886516146,0.950873101682388,3.6666666666666665,3.7037037037037037,-1,2,-1.156481110814518,0.9251848886516146,3,3,4,3,4,-3,3,-2.0816659994661326,-3,-4,-1.6563595964789986,1,Right,2.382599999904633,3,2.890739393935059
6,R_3p54WiA7sYeMXtD,30,f,1,1,3709.300000190735,Climate change legislation,Mandatory trigger warnings,1,1,2,6,3,0.9251848886516146,0.950873101682388,3.6666666666666665,3.7037037037037037,2,4,3,0.9251848886516146,0.12269330344288877,3.6666666666666665,3.7037037037037037,2,2,0.9251848886516146,0.9251848886516146,0,0,2,0,2,0,0,0,0,2,0.8281797982394993,0,Left,3.709300000190735,4,2.890739393935059
6,R_3p54WiA7sYeMXtD,31,f,1,1,5988.600000143051,Climate change legislation,Tuition increases,-1,1,2,6,3,0.9251848886516146,0.950873101682388,3.6666666666666665,3.7037037037037037,-3,3,3,-2.5442584437919398,-0.2913965956768609,3.6666666666666665,3.7037037037037037,-2,-3,-0.9251848886516146,-2.5442584437919398,1,5,3,1,3,1,-1,1.619073555140325,5,3,1.2422696973592489,0,Left,5.988600000143051,5,2.890739393935059
6,R_3p54WiA7sYeMXtD,32,j,2,0,2785,Tuition increases,Dorms determined by gender identity,1,1,-3,3,3,-2.5442584437919398,-0.2913965956768609,3.6666666666666665,3.7037037037037037,-1,3,1,-1.156481110814518,-0.2913965956768609,3.6666666666666665,3.7037037037037037,-3,-1,-2.5442584437919398,-1.156481110814518,2,2,0,2,0,-2,2,-1.3877773329774217,-2,0,0,1,Right,2.785,3,2.890739393935059
6,R_3p54WiA7sYeMXtD,33,j,2,0,4388.599999904633,University Campus should be a Sanctuary,Dorms determined by gender identity,-1,1,2,6,3,0.9251848886516146,0.950873101682388,3.6666666666666665,3.7037037037037037,-1,3,1,-1.156481110814518,-0.2913965956768609,3.6666666666666665,3.7037037037037037,-2,-1,-0.9251848886516146,-1.156481110814518,1,-3,-3,1,3,-1,1,0.23129622216290346,3,3,1.2422696973592489,1,Right,4.388599999904633,5,2.890739393935059
6,R_3p54WiA7sYeMXtD,34,f,1,1,2701.399999856949,Increased Gun regulations,Student worker unionization,1,-1,3,8,4,1.6190735551403255,1.779052899921887,3.6666666666666665,3.7037037037037037,1,3,2,0.23129622216290374,-0.2913965956768609,3.6666666666666665,3.7037037037037037,3,-1,1.6190735551403255,-0.23129622216290374,4,2,5,4,5,4,-4,1.8503697773032293,2,5,2.070449495598748,0,Left,2.7013999998569487,3,2.890739393935059
6,R_3p54WiA7sYeMXtD,35,j,2,0,1511.5,Black Lives Matter,Increased Gun regulations,-1,1,2,6,4,0.9251848886516146,0.950873101682388,3.6666666666666665,3.7037037037037037,3,8,4,1.6190735551403255,1.779052899921887,3.6666666666666665,3.7037037037037037,-2,3,-0.9251848886516146,1.6190735551403255,5,1,2,5,2,-5,5,-2.54425844379194,-1,-2,-0.828179798239499,1,Right,1.5115,1,2.890739393935059
6,R_3p54WiA7sYeMXtD,36,j,2,0,2083.100000143051,Increased Gun regulations,Tuition increases,-1,-1,3,8,4,1.6190735551403255,1.779052899921887,3.6666666666666665,3.7037037037037037,-3,3,3,-2.5442584437919398,-0.2913965956768609,3.6666666666666665,3.7037037037037037,-3,3,-1.6190735551403255,2.5442584437919398,6,-6,-5,6,5,-6,6,-4.163331998932265,6,5,2.070449495598748,1,Right,2.0831000001430513,2,2.890739393935059
6,R_3p54WiA7sYeMXtD,37,j,2,0,2062.7999999523163,Remove police from schools,Tuition increases,-1,-1,-1,2,1,-1.156481110814518,-0.7054864947966105,3.6666666666666665,3.7037037037037037,-3,3,3,-2.5442584437919398,-0.2913965956768609,3.6666666666666665,3.7037037037037037,1,3,1.156481110814518,2.5442584437919398,2,-2,1,2,1,-2,2,-1.3877773329774217,2,-1,-0.41408989911974964,1,Right,2.062799999952316,2,2.890739393935059
6,R_3p54WiA7sYeMXtD,38,f,1,1,2798.800000190735,University Campus should be a Sanctuary,Gun-free campus police,1,-1,2,6,3,0.9251848886516146,0.950873101682388,3.6666666666666665,3.7037037037037037,1,4,3,0.23129622216290374,0.12269330344288877,3.6666666666666665,3.7037037037037037,2,-1,0.9251848886516146,-0.23129622216290374,3,1,2,3,2,3,-3,1.1564811108145183,1,2,0.8281797982394993,0,Left,2.798800000190735,3,2.890739393935059
6,R_3p54WiA7sYeMXtD,39,f,1,1,4608.199999809265,Increased Gun regulations,Climate change legislation,1,1,3,8,4,1.6190735551403255,1.779052899921887,3.6666666666666665,3.7037037037037037,2,6,3,0.9251848886516146,0.950873101682388,3.6666666666666665,3.7037037037037037,3,2,1.6190735551403255,0.9251848886516146,1,1,2,1,2,1,-1,0.6938886664887108,1,2,0.828179798239499,0,Left,4.6081999998092655,5,2.890739393935059
6,R_3p54WiA7sYeMXtD,40,j,2,0,1919.0999999046326,Increased Gun regulations,Mask mandates,-1,1,3,8,4,1.6190735551403255,1.779052899921887,3.6666666666666665,3.7037037037037037,2,7,4,0.9251848886516146,1.3649630008021376,3.6666666666666665,3.7037037037037037,-3,2,-1.6190735551403255,0.9251848886516146,5,-1,-1,5,1,-5,5,-2.54425844379194,1,1,0.41408989911974947,1,Right,1.9190999999046325,2,2.890739393935059
6,R_3p54WiA7sYeMXtD,41,j,2,0,5495.5,Stop police brutality,Mandatory trigger warnings,-1,-1,2,6,1,0.9251848886516146,0.950873101682388,3.6666666666666665,3.7037037037037037,2,4,3,0.9251848886516146,0.12269330344288877,3.6666666666666665,3.7037037037037037,-2,-2,-0.9251848886516146,-0.9251848886516146,0,0,-2,0,2,0,0,0,0,2,0.8281797982394993,1,Right,5.4955,5,2.890739393935059
6,R_3p54WiA7sYeMXtD,42,f,1,1,2644.899999856949,Tuition increases,Remove police from schools,-1,1,-3,3,3,-2.5442584437919398,-0.2913965956768609,3.6666666666666665,3.7037037037037037,-1,2,1,-1.156481110814518,-0.7054864947966105,3.6666666666666665,3.7037037037037037,3,-1,2.5442584437919398,-1.156481110814518,4,-2,1,4,1,4,-4,3.700739554606458,-2,1,0.41408989911974964,0,Left,2.644899999856949,3,2.890739393935059
6,R_3p54WiA7sYeMXtD,43,f,1,1,2678.0999999046326,Remove police from schools,Black Lives Matter,-1,-1,-1,2,1,-1.156481110814518,-0.7054864947966105,3.6666666666666665,3.7037037037037037,2,6,4,0.9251848886516146,0.950873101682388,3.6666666666666665,3.7037037037037037,1,-2,1.156481110814518,-0.9251848886516146,3,-3,-4,3,4,3,-3,2.0816659994661326,-3,-4,-1.6563595964789986,0,Left,2.6780999999046324,3,2.890739393935059
6,R_3p54WiA7sYeMXtD,44,j,2,0,1982.5,War on Drugs,Tuition increases,-1,-1,0,0,1,-0.46259244432580715,-1.5336662930361098,3.6666666666666665,3.7037037037037037,-3,3,3,-2.5442584437919398,-0.2913965956768609,3.6666666666666665,3.7037037037037037,-0,3,0.46259244432580715,2.5442584437919398,3,-3,3,3,3,-3,3,-2.0816659994661326,3,-3,-1.2422696973592489,1,Right,1.9825,2,2.890739393935059
6,R_3p54WiA7sYeMXtD,45,f,1,1,1801.7000000476837,Ban on research with animals,Increased Gun regulations,1,1,2,5,3,0.9251848886516146,0.5367832025626385,3.6666666666666665,3.7037037037037037,3,8,4,1.6190735551403255,1.779052899921887,3.6666666666666665,3.7037037037037037,2,3,0.9251848886516146,1.6190735551403255,-1,-1,-3,1,3,-1,1,-0.6938886664887108,-1,-3,-1.2422696973592486,0,Left,1.8017000000476837,2,2.890739393935059
6,R_3p54WiA7sYeMXtD,46,j,2,0,1465.9000000953674,Legalization of marijuana,Tuition increases,-1,-1,-2,5,4,-1.850369777303229,0.5367832025626385,3.6666666666666665,3.7037037037037037,-3,3,3,-2.5442584437919398,-0.2913965956768609,3.6666666666666665,3.7037037037037037,2,3,1.850369777303229,2.5442584437919398,1,-1,-2,1,2,-1,1,-0.6938886664887107,1,2,0.8281797982394994,1,Right,1.4659000000953675,1,2.890739393935059
6,R_3p54WiA7sYeMXtD,47,j,2,0,2144.0999999046326,Mask mandates,Increased Gun regulations,1,1,2,7,4,0.9251848886516146,1.3649630008021376,3.6666666666666665,3.7037037037037037,3,8,4,1.6190735551403255,1.779052899921887,3.6666666666666665,3.7037037037037037,2,3,0.9251848886516146,1.6190735551403255,1,1,1,1,1,-1,1,-0.6938886664887108,-1,-1,-0.41408989911974947,1,Right,2.1440999999046326,2,2.890739393935059
6,R_3p54WiA7sYeMXtD,48,j,2,0,2058.5999999046326,Dorms determined by gender identity,Tuition increases,-1,-1,-1,3,1,-1.156481110814518,-0.2913965956768609,3.6666666666666665,3.7037037037037037,-3,3,3,-2.5442584437919398,-0.2913965956768609,3.6666666666666665,3.7037037037037037,1,3,1.156481110814518,2.5442584437919398,2,-2,0,2,0,-2,2,-1.3877773329774217,2,0,0,1,Right,2.0585999999046325,2,2.890739393935059
6,R_3p54WiA7sYeMXtD,49,j,2,0,3868.5999999046326,Remove police from schools,Tuition increases,1,1,-1,2,1,-1.156481110814518,-0.7054864947966105,3.6666666666666665,3.7037037037037037,-3,3,3,-2.5442584437919398,-0.2913965956768609,3.6666666666666665,3.7037037037037037,-1,-3,-1.156481110814518,-2.5442584437919398,-2,-2,1,2,1,2,-2,1.3877773329774217,2,-1,-0.41408989911974964,1,Right,3.8685999999046325,4,2.890739393935059
6,R_3p54WiA7sYeMXtD,50,f,1,1,4699.599999904633,Mask mandates,Tuition increases,-1,1,2,7,4,0.9251848886516146,1.3649630008021376,3.6666666666666665,3.7037037037037037,-3,3,3,-2.5442584437919398,-0.2913965956768609,3.6666666666666665,3.7037037037037037,-2,-3,-0.9251848886516146,-2.5442584437919398,1,5,4,1,4,1,-1,1.619073555140325,5,4,1.6563595964789986,0,Left,4.699599999904633,5,2.890739393935059
6,R_3p54WiA7sYeMXtD,51,f,1,1,3116.9000000953674,Tuition increases,Increased Gun regulations,-1,1,-3,3,3,-2.5442584437919398,-0.2913965956768609,3.6666666666666665,3.7037037037037037,3,8,4,1.6190735551403255,1.779052899921887,3.6666666666666665,3.7037037037037037,3,3,2.5442584437919398,1.6190735551403255,0,-6,-5,0,5,0,0,0.9251848886516143,-6,-5,-2.070449495598748,0,Left,3.1169000000953675,4,2.890739393935059
6,R_3p54WiA7sYeMXtD,52,f,1,1,2554.5,Abortion rights,Dorms determined by gender identity,1,1,2,6,4,0.9251848886516146,0.950873101682388,3.6666666666666665,3.7037037037037037,-1,3,1,-1.156481110814518,-0.2913965956768609,3.6666666666666665,3.7037037037037037,2,-1,0.9251848886516146,-1.156481110814518,3,3,3,3,3,3,-3,2.0816659994661326,3,3,1.2422696973592489,0,Left,2.5545,3,2.890739393935059
6,R_3p54WiA7sYeMXtD,53,f,1,1,1682.2000000476837,Ban on research with animals,Tuition increases,1,1,2,5,3,0.9251848886516146,0.5367832025626385,3.6666666666666665,3.7037037037037037,-3,3,3,-2.5442584437919398,-0.2913965956768609,3.6666666666666665,3.7037037037037037,2,-3,0.9251848886516146,-2.5442584437919398,5,5,2,5,2,5,-5,3.4694433324435545,5,2,0.8281797982394994,0,Left,1.6822000000476838,1,2.890739393935059
6,R_3p54WiA7sYeMXtD,54,f,1,1,2890.5,University Campus should be a Sanctuary,Mandatory trigger warnings,1,-1,2,6,3,0.9251848886516146,0.950873101682388,3.6666666666666665,3.7037037037037037,2,4,3,0.9251848886516146,0.12269330344288877,3.6666666666666665,3.7037037037037037,2,-2,0.9251848886516146,-0.9251848886516146,4,0,2,4,2,4,-4,1.8503697773032293,0,2,0.8281797982394993,0,Left,2.8905,3,2.890739393935059
6,R_3p54WiA7sYeMXtD,55,f,1,1,3386.5,Abortion rights,Affirmative action,-1,-1,2,6,4,0.9251848886516146,0.950873101682388,3.6666666666666665,3.7037037037037037,0,4,4,-0.46259244432580715,0.12269330344288877,3.6666666666666665,3.7037037037037037,-2,-0,-0.9251848886516146,0.46259244432580715,-2,2,2,2,2,-2,2,-1.387777332977422,2,2,0.8281797982394993,0,Left,3.3865,4,2.890739393935059
6,R_3p54WiA7sYeMXtD,56,f,1,1,1619.7999999523163,Increased Gun regulations,Tuition increases,1,1,3,8,4,1.6190735551403255,1.779052899921887,3.6666666666666665,3.7037037037037037,-3,3,3,-2.5442584437919398,-0.2913965956768609,3.6666666666666665,3.7037037037037037,3,-3,1.6190735551403255,-2.5442584437919398,6,6,5,6,5,6,-6,4.163331998932265,6,5,2.070449495598748,0,Left,1.6197999999523163,1,2.890739393935059
6,R_3p54WiA7sYeMXtD,57,j,2,0,3851.7999999523163,Mask mandates,Stop police brutality,1,1,2,7,4,0.9251848886516146,1.3649630008021376,3.6666666666666665,3.7037037037037037,2,6,1,0.9251848886516146,0.950873101682388,3.6666666666666665,3.7037037037037037,2,2,0.9251848886516146,0.9251848886516146,0,0,-1,0,1,0,0,0,0,1,0.4140898991197496,1,Right,3.8517999999523163,4,2.890739393935059
6,R_3p54WiA7sYeMXtD,58,j,2,0,1798.3999998569489,Tuition increases,Mandatory trigger warnings,1,1,-3,3,3,-2.5442584437919398,-0.2913965956768609,3.6666666666666665,3.7037037037037037,2,4,3,0.9251848886516146,0.12269330344288877,3.6666666666666665,3.7037037037037037,-3,2,-2.5442584437919398,0.9251848886516146,5,5,1,5,1,-5,5,-3.4694433324435545,-5,-1,-0.41408989911974964,1,Right,1.7983999998569489,2,2.890739393935059
6,R_3p54WiA7sYeMXtD,59,f,1,1,5652.300000190735,Climate change legislation,Legalization of marijuana,-1,-1,2,6,3,0.9251848886516146,0.950873101682388,3.6666666666666665,3.7037037037037037,-2,5,4,-1.850369777303229,0.5367832025626385,3.6666666666666665,3.7037037037037037,-2,2,-0.9251848886516146,1.850369777303229,-4,4,1,4,1,-4,4,-2.775554665954844,4,1,0.4140898991197496,0,Left,5.652300000190735,5,2.890739393935059
6,R_3p54WiA7sYeMXtD,60,f,1,1,2782.5,Increased Gun regulations,Abolishing fraternities,1,1,3,8,4,1.6190735551403255,1.779052899921887,3.6666666666666665,3.7037037037037037,0,0,3,-0.46259244432580715,-1.5336662930361098,3.6666666666666665,3.7037037037037037,3,0,1.6190735551403255,-0.46259244432580715,3,3,8,3,8,3,-3,2.0816659994661326,3,8,3.3127191929579967,0,Left,2.7825,3,2.890739393935059
6,R_3p54WiA7sYeMXtD,61,f,1,1,3687,Tuition increases,Legalization of marijuana,-1,1,-3,3,3,-2.5442584437919398,-0.2913965956768609,3.6666666666666665,3.7037037037037037,-2,5,4,-1.850369777303229,0.5367832025626385,3.6666666666666665,3.7037037037037037,3,-2,2.5442584437919398,-1.850369777303229,5,-1,-2,5,2,5,-5,4.394628221095169,-1,-2,-0.8281797982394994,0,Left,3.687,4,2.890739393935059
6,R_3p54WiA7sYeMXtD,62,f,1,1,3916.100000143051,Student worker unionization,Climate change legislation,1,-1,1,3,2,0.23129622216290374,-0.2913965956768609,3.6666666666666665,3.7037037037037037,2,6,3,0.9251848886516146,0.950873101682388,3.6666666666666665,3.7037037037037037,1,-2,0.23129622216290374,-0.9251848886516146,3,-1,-3,3,3,3,-3,1.1564811108145183,-1,-3,-1.2422696973592489,0,Left,3.916100000143051,4,2.890739393935059
6,R_3p54WiA7sYeMXtD,63,j,2,0,2706.5,Mask mandates,Increased Gun regulations,-1,1,2,7,4,0.9251848886516146,1.3649630008021376,3.6666666666666665,3.7037037037037037,3,8,4,1.6190735551403255,1.779052899921887,3.6666666666666665,3.7037037037037037,-2,3,-0.9251848886516146,1.6190735551403255,5,1,1,5,1,-5,5,-2.54425844379194,-1,-1,-0.41408989911974947,1,Right,2.7065,3,2.890739393935059
6,R_3p54WiA7sYeMXtD,64,f,1,1,3739,Black Lives Matter,Mask mandates,1,-1,2,6,4,0.9251848886516146,0.950873101682388,3.6666666666666665,3.7037037037037037,2,7,4,0.9251848886516146,1.3649630008021376,3.6666666666666665,3.7037037037037037,2,-2,0.9251848886516146,-0.9251848886516146,4,0,-1,4,1,4,-4,1.8503697773032293,0,-1,-0.4140898991197496,0,Left,3.739,4,2.890739393935059
6,R_3p54WiA7sYeMXtD,65,f,1,1,2545.7000000476837,Mandatory trigger warnings,Tuition increases,-1,1,2,4,3,0.9251848886516146,0.12269330344288877,3.6666666666666665,3.7037037037037037,-3,3,3,-2.5442584437919398,-0.2913965956768609,3.6666666666666665,3.7037037037037037,-2,-3,-0.9251848886516146,-2.5442584437919398,1,5,1,1,1,1,-1,1.619073555140325,5,1,0.41408989911974964,0,Left,2.5457000000476837,3,2.890739393935059
6,R_3p54WiA7sYeMXtD,66,f,1,1,4037.9000000953674,Stop police brutality,Raise the minimum wage,1,1,2,6,1,0.9251848886516146,0.950873101682388,3.6666666666666665,3.7037037037037037,1,4,3,0.23129622216290374,0.12269330344288877,3.6666666666666665,3.7037037037037037,2,1,0.9251848886516146,0.23129622216290374,1,1,2,1,2,1,-1,0.693888666488711,1,2,0.8281797982394993,0,Left,4.037900000095368,5,2.890739393935059
6,R_3p54WiA7sYeMXtD,67,f,1,1,3968.5,Gun-free campus police,Tuition increases,-1,1,1,4,3,0.23129622216290374,0.12269330344288877,3.6666666666666665,3.7037037037037037,-3,3,3,-2.5442584437919398,-0.2913965956768609,3.6666666666666665,3.7037037037037037,-1,-3,-0.23129622216290374,-2.5442584437919398,2,4,1,2,1,2,-2,2.312962221629036,4,1,0.41408989911974964,0,Left,3.9685,4,2.890739393935059
6,R_3p54WiA7sYeMXtD,68,f,1,1,1327,Abortion rights,Remove police from schools,1,-1,2,6,4,0.9251848886516146,0.950873101682388,3.6666666666666665,3.7037037037037037,-1,2,1,-1.156481110814518,-0.7054864947966105,3.6666666666666665,3.7037037037037037,2,1,0.9251848886516146,1.156481110814518,1,3,4,1,4,1,-1,-0.23129622216290346,3,4,1.6563595964789986,0,Left,1.327,1,2.890739393935059
6,R_3p54WiA7sYeMXtD,69,j,2,0,2584.7999999523163,Tuition increases,Mask mandates,1,1,-3,3,3,-2.5442584437919398,-0.2913965956768609,3.6666666666666665,3.7037037037037037,2,7,4,0.9251848886516146,1.3649630008021376,3.6666666666666665,3.7037037037037037,-3,2,-2.5442584437919398,0.9251848886516146,5,5,4,5,4,-5,5,-3.4694433324435545,-5,-4,-1.6563595964789986,1,Right,2.5847999999523164,3,2.890739393935059
6,R_3p54WiA7sYeMXtD,70,j,2,0,2307.7000000476837,Dorms determined by gender identity,Black Lives Matter,-1,1,-1,3,1,-1.156481110814518,-0.2913965956768609,3.6666666666666665,3.7037037037037037,2,6,4,0.9251848886516146,0.950873101682388,3.6666666666666665,3.7037037037037037,1,2,1.156481110814518,0.9251848886516146,1,3,3,1,3,-1,1,0.23129622216290346,-3,-3,-1.2422696973592489,1,Right,2.3077000000476837,2,2.890739393935059
6,R_3p54WiA7sYeMXtD,71,j,2,0,5302.5,Increased Gun regulations,Affirmative action,-1,-1,3,8,4,1.6190735551403255,1.779052899921887,3.6666666666666665,3.7037037037037037,0,4,4,-0.46259244432580715,0.12269330344288877,3.6666666666666665,3.7037037037037037,-3,-0,-1.6190735551403255,0.46259244432580715,3,-3,-4,3,4,-3,3,-2.0816659994661326,3,4,1.6563595964789983,1,Right,5.3025,5,2.890739393935059
6,R_3p54WiA7sYeMXtD,72,j,2,0,2353.5,Stop police brutality,Tuition increases,1,-1,2,6,1,0.9251848886516146,0.950873101682388,3.6666666666666665,3.7037037037037037,-3,3,3,-2.5442584437919398,-0.2913965956768609,3.6666666666666665,3.7037037037037037,2,3,0.9251848886516146,2.5442584437919398,1,-5,-3,1,3,-1,1,-1.619073555140325,5,3,1.2422696973592489,1,Right,2.3535,3,2.890739393935059
6,R_3p54WiA7sYeMXtD,73,f,1,1,2198.2999999523163,Tuition increases,Mask mandates,-1,1,-3,3,3,-2.5442584437919398,-0.2913965956768609,3.6666666666666665,3.7037037037037037,2,7,4,0.9251848886516146,1.3649630008021376,3.6666666666666665,3.7037037037037037,3,2,2.5442584437919398,0.9251848886516146,1,-5,-4,1,4,1,-1,1.619073555140325,-5,-4,-1.6563595964789986,0,Left,2.198299999952316,2,2.890739393935059
6,R_3p54WiA7sYeMXtD,74,j,2,0,1997.2999999523163,Mandatory vaccinations,Mask mandates,-1,-1,2,6,4,0.9251848886516146,0.950873101682388,3.6666666666666665,3.7037037037037037,2,7,4,0.9251848886516146,1.3649630008021376,3.6666666666666665,3.7037037037037037,-2,-2,-0.9251848886516146,-0.9251848886516146,0,0,1,0,1,0,0,0,0,-1,-0.4140898991197496,1,Right,1.9972999999523162,2,2.890739393935059
6,R_3p54WiA7sYeMXtD,75,f,1,1,2141.2000000476837,Affirmative action,Tuition increases,-1,1,0,4,4,-0.46259244432580715,0.12269330344288877,3.6666666666666665,3.7037037037037037,-3,3,3,-2.5442584437919398,-0.2913965956768609,3.6666666666666665,3.7037037037037037,-0,-3,0.46259244432580715,-2.5442584437919398,3,3,1,3,1,3,-3,3.006850888117747,3,1,0.41408989911974964,0,Left,2.1412000000476836,2,2.890739393935059
6,R_3p54WiA7sYeMXtD,76,j,2,0,1468.7000000476837,Mandatory vaccinations,Raise the minimum wage,-1,1,2,6,4,0.9251848886516146,0.950873101682388,3.6666666666666665,3.7037037037037037,1,4,3,0.23129622216290374,0.12269330344288877,3.6666666666666665,3.7037037037037037,-2,1,-0.9251848886516146,0.23129622216290374,3,-1,-2,3,2,-3,3,-1.1564811108145183,1,2,0.8281797982394993,1,Right,1.4687000000476838,1,2.890739393935059
6,R_3p54WiA7sYeMXtD,77,j,2,0,1808.5,Remove police from schools,Increased Gun regulations,1,1,-1,2,1,-1.156481110814518,-0.7054864947966105,3.6666666666666665,3.7037037037037037,3,8,4,1.6190735551403255,1.779052899921887,3.6666666666666665,3.7037037037037037,-1,3,-1.156481110814518,1.6190735551403255,4,4,6,4,6,-4,4,-2.775554665954844,-4,-6,-2.4845393947184977,1,Right,1.8085,2,2.890739393935059
6,R_3p54WiA7sYeMXtD,78,f,1,1,867.5,Abortion rights,Tuition increases,1,1,2,6,4,0.9251848886516146,0.950873101682388,3.6666666666666665,3.7037037037037037,-3,3,3,-2.5442584437919398,-0.2913965956768609,3.6666666666666665,3.7037037037037037,2,-3,0.9251848886516146,-2.5442584437919398,5,5,3,5,3,5,-5,3.4694433324435545,5,3,1.2422696973592489,0,Left,0.8675,1,2.890739393935059
6,R_3p54WiA7sYeMXtD,79,f,1,1,1012.2000000476837,Increased Gun regulations,Raise the minimum wage,1,1,3,8,4,1.6190735551403255,1.779052899921887,3.6666666666666665,3.7037037037037037,1,4,3,0.23129622216290374,0.12269330344288877,3.6666666666666665,3.7037037037037037,3,1,1.6190735551403255,0.23129622216290374,2,2,4,2,4,2,-2,1.3877773329774217,2,4,1.6563595964789983,0,Left,1.0122000000476836,1,2.890739393935059
6,R_3p54WiA7sYeMXtD,80,f,1,1,5324.099999904633,Increased Gun regulations,Mask mandates,-1,-1,3,8,4,1.6190735551403255,1.779052899921887,3.6666666666666665,3.7037037037037037,2,7,4,0.9251848886516146,1.3649630008021376,3.6666666666666665,3.7037037037037037,-3,-2,-1.6190735551403255,-0.9251848886516146,-1,1,1,1,1,-1,1,-0.6938886664887108,1,1,0.41408989911974947,0,Left,5.324099999904632,5,2.890739393935059
6,R_3p54WiA7sYeMXtD,81,j,2,0,1507.5999999046326,Ban on research with animals,University Campus should be a Sanctuary,-1,1,2,5,3,0.9251848886516146,0.5367832025626385,3.6666666666666665,3.7037037037037037,2,6,3,0.9251848886516146,0.950873101682388,3.6666666666666665,3.7037037037037037,-2,2,-0.9251848886516146,0.9251848886516146,4,0,1,4,1,-4,4,-1.8503697773032293,0,-1,-0.4140898991197496,1,Right,1.5075999999046326,1,2.890739393935059
6,R_3p54WiA7sYeMXtD,82,f,1,1,1718.5,Tuition increases,Student worker unionization,-1,-1,-3,3,3,-2.5442584437919398,-0.2913965956768609,3.6666666666666665,3.7037037037037037,1,3,2,0.23129622216290374,-0.2913965956768609,3.6666666666666665,3.7037037037037037,3,-1,2.5442584437919398,-0.23129622216290374,4,-4,0,4,0,4,-4,2.7755546659548433,-4,0,0,0,Left,1.7185,1,2.890739393935059
6,R_3p54WiA7sYeMXtD,83,f,1,1,3654.2000000476837,Gun-free campus police,Increased Gun regulations,1,-1,1,4,3,0.23129622216290374,0.12269330344288877,3.6666666666666665,3.7037037037037037,3,8,4,1.6190735551403255,1.779052899921887,3.6666666666666665,3.7037037037037037,1,-3,0.23129622216290374,-1.6190735551403255,4,-2,-4,4,4,4,-4,1.8503697773032293,-2,-4,-1.6563595964789983,0,Left,3.6542000000476835,4,2.890739393935059
6,R_3p54WiA7sYeMXtD,84,f,1,1,3602,Increased Gun regulations,Remove police from schools,-1,-1,3,8,4,1.6190735551403255,1.779052899921887,3.6666666666666665,3.7037037037037037,-1,2,1,-1.156481110814518,-0.7054864947966105,3.6666666666666665,3.7037037037037037,-3,1,-1.6190735551403255,1.156481110814518,-4,4,6,4,6,-4,4,-2.775554665954844,4,6,2.4845393947184977,0,Left,3.602,4,2.890739393935059
6,R_3p54WiA7sYeMXtD,85,f,1,1,1492,Increased Gun regulations,Dorms determined by gender identity,1,-1,3,8,4,1.6190735551403255,1.779052899921887,3.6666666666666665,3.7037037037037037,-1,3,1,-1.156481110814518,-0.2913965956768609,3.6666666666666665,3.7037037037037037,3,1,1.6190735551403255,1.156481110814518,2,4,5,2,5,2,-2,0.4625924443258074,4,5,2.070449495598748,0,Left,1.492,1,2.890739393935059
6,R_3p54WiA7sYeMXtD,86,j,2,0,1623.2999999523163,Tuition increases,Student worker unionization,1,1,-3,3,3,-2.5442584437919398,-0.2913965956768609,3.6666666666666665,3.7037037037037037,1,3,2,0.23129622216290374,-0.2913965956768609,3.6666666666666665,3.7037037037037037,-3,1,-2.5442584437919398,0.23129622216290374,4,4,0,4,0,-4,4,-2.7755546659548433,-4,0,0,1,Right,1.6232999999523163,1,2.890739393935059
6,R_3p54WiA7sYeMXtD,87,j,2,0,1108.0999999046326,Tuition increases,Tuition increases,1,-1,-3,3,3,-2.5442584437919398,-0.2913965956768609,3.6666666666666665,3.7037037037037037,-3,3,3,-2.5442584437919398,-0.2913965956768609,3.6666666666666665,3.7037037037037037,-3,3,-2.5442584437919398,2.5442584437919398,6,0,0,6,0,-6,6,-5.0885168875838795,0,0,0,1,Right,1.1080999999046326,1,2.890739393935059
6,R_3p54WiA7sYeMXtD,88,f,1,1,1949.7000000476837,Black Lives Matter,Affirmative action,1,1,2,6,4,0.9251848886516146,0.950873101682388,3.6666666666666665,3.7037037037037037,0,4,4,-0.46259244432580715,0.12269330344288877,3.6666666666666665,3.7037037037037037,2,0,0.9251848886516146,-0.46259244432580715,2,2,2,2,2,2,-2,1.387777332977422,2,2,0.8281797982394993,0,Left,1.9497000000476836,2,2.890739393935059
6,R_3p54WiA7sYeMXtD,89,f,1,1,900.5999999046326,Abortion rights,Ban on research with animals,1,1,2,6,4,0.9251848886516146,0.950873101682388,3.6666666666666665,3.7037037037037037,2,5,3,0.9251848886516146,0.5367832025626385,3.6666666666666665,3.7037037037037037,2,2,0.9251848886516146,0.9251848886516146,0,0,1,0,1,0,0,0,0,1,0.4140898991197496,0,Left,0.9005999999046326,1,2.890739393935059
6,R_3p54WiA7sYeMXtD,90,f,1,1,1539,Tuition increases,Increased Gun regulations,1,-1,-3,3,3,-2.5442584437919398,-0.2913965956768609,3.6666666666666665,3.7037037037037037,3,8,4,1.6190735551403255,1.779052899921887,3.6666666666666665,3.7037037037037037,-3,-3,-2.5442584437919398,-1.6190735551403255,0,-6,-5,0,5,0,0,-0.9251848886516143,-6,-5,-2.070449495598748,0,Left,1.539,1,2.890739393935059
6,R_3p54WiA7sYeMXtD,91,f,1,1,5563.5,Remove police from schools,Tuition increases,-1,1,-1,2,1,-1.156481110814518,-0.7054864947966105,3.6666666666666665,3.7037037037037037,-3,3,3,-2.5442584437919398,-0.2913965956768609,3.6666666666666665,3.7037037037037037,1,-3,1.156481110814518,-2.5442584437919398,4,2,-1,4,1,4,-4,3.700739554606458,2,-1,-0.41408989911974964,0,Left,5.5635,5,2.890739393935059
6,R_3p54WiA7sYeMXtD,92,f,1,1,2604.699999809265,Abolishing fraternities,University Campus should be a Sanctuary,1,-1,0,0,3,-0.46259244432580715,-1.5336662930361098,3.6666666666666665,3.7037037037037037,2,6,3,0.9251848886516146,0.950873101682388,3.6666666666666665,3.7037037037037037,0,-2,-0.46259244432580715,-0.9251848886516146,2,-2,-6,2,6,2,-2,0.4625924443258075,-2,-6,-2.4845393947184977,0,Left,2.6046999998092653,3,2.890739393935059
6,R_3p54WiA7sYeMXtD,93,f,1,1,5856.600000143051,Ban on ethnic Halloween costumes,Increased Gun regulations,-1,-1,0,0,1,-0.46259244432580715,-1.5336662930361098,3.6666666666666665,3.7037037037037037,3,8,4,1.6190735551403255,1.779052899921887,3.6666666666666665,3.7037037037037037,-0,-3,0.46259244432580715,-1.6190735551403255,3,-3,-8,3,8,3,-3,2.0816659994661326,-3,-8,-3.3127191929579967,0,Left,5.856600000143051,5,2.890739393935059
6,R_3p54WiA7sYeMXtD,94,j,2,0,2326.7999999523163,Tuition increases,Legalization of marijuana,1,1,-3,3,3,-2.5442584437919398,-0.2913965956768609,3.6666666666666665,3.7037037037037037,-2,5,4,-1.850369777303229,0.5367832025626385,3.6666666666666665,3.7037037037037037,-3,-2,-2.5442584437919398,-1.850369777303229,1,1,2,1,2,-1,1,-0.6938886664887107,-1,-2,-0.8281797982394994,1,Right,2.3267999999523163,2,2.890739393935059
6,R_3p54WiA7sYeMXtD,95,j,2,0,1837.2000000476837,Ban on research with animals,Increased Gun regulations,-1,1,2,5,3,0.9251848886516146,0.5367832025626385,3.6666666666666665,3.7037037037037037,3,8,4,1.6190735551403255,1.779052899921887,3.6666666666666665,3.7037037037037037,-2,3,-0.9251848886516146,1.6190735551403255,5,1,3,5,3,-5,5,-2.54425844379194,-1,-3,-1.2422696973592486,1,Right,1.8372000000476838,2,2.890739393935059
6,R_3p54WiA7sYeMXtD,96,f,1,1,2895,Increased Gun regulations,Mandatory trigger warnings,1,-1,3,8,4,1.6190735551403255,1.779052899921887,3.6666666666666665,3.7037037037037037,2,4,3,0.9251848886516146,0.12269330344288877,3.6666666666666665,3.7037037037037037,3,-2,1.6190735551403255,-0.9251848886516146,5,1,4,5,4,5,-5,2.54425844379194,1,4,1.6563595964789983,0,Left,2.895,4,2.890739393935059
6,R_3p54WiA7sYeMXtD,97,f,1,1,1295.7999999523163,Tuition increases,Affirmative action,-1,-1,-3,3,3,-2.5442584437919398,-0.2913965956768609,3.6666666666666665,3.7037037037037037,0,4,4,-0.46259244432580715,0.12269330344288877,3.6666666666666665,3.7037037037037037,3,-0,2.5442584437919398,0.46259244432580715,3,-3,-1,3,1,3,-3,2.0816659994661326,-3,-1,-0.41408989911974964,0,Left,1.2957999999523162,1,2.890739393935059
6,R_3p54WiA7sYeMXtD,98,f,1,1,920.2000000476837,Tuition increases,Mask mandates,-1,-1,-3,3,3,-2.5442584437919398,-0.2913965956768609,3.6666666666666665,3.7037037037037037,2,7,4,0.9251848886516146,1.3649630008021376,3.6666666666666665,3.7037037037037037,3,-2,2.5442584437919398,-0.9251848886516146,5,-5,-4,5,4,5,-5,3.4694433324435545,-5,-4,-1.6563595964789986,0,Left,0.9202000000476838,1,2.890739393935059
6,R_3p54WiA7sYeMXtD,99,f,1,1,3027.7000000476837,Mandatory trigger warnings,Increased Gun regulations,-1,-1,2,4,3,0.9251848886516146,0.12269330344288877,3.6666666666666665,3.7037037037037037,3,8,4,1.6190735551403255,1.779052899921887,3.6666666666666665,3.7037037037037037,-2,-3,-0.9251848886516146,-1.6190735551403255,1,-1,-4,1,4,1,-1,0.6938886664887108,-1,-4,-1.6563595964789983,0,Left,3.027700000047684,4,2.890739393935059
6,R_3p54WiA7sYeMXtD,100,f,1,1,1631.6000001430511,Tuition increases,Mandatory trigger warnings,-1,-1,-3,3,3,-2.5442584437919398,-0.2913965956768609,3.6666666666666665,3.7037037037037037,2,4,3,0.9251848886516146,0.12269330344288877,3.6666666666666665,3.7037037037037037,3,-2,2.5442584437919398,-0.9251848886516146,5,-5,-1,5,1,5,-5,3.4694433324435545,-5,-1,-0.41408989911974964,0,Left,1.631600000143051,1,2.890739393935059
3,R_1ogN3G1JEY1wbcQ,2,f,1,1,2534,Legalization of marijuana,Defund Planned Parenthood,1,1,3,6,4,0.8779867365698877,-1.4953986705126103,3.625,7.55,-3,8,4,-1.3400850189750917,0.43414800111656454,3.625,7.55,3,-3,0.8779867365698877,-1.3400850189750917,6,6,-2,6,2,6,-6,2.2180717555449796,6,-2,-1.929546671629175,0,Left,2.534,2,3.0215714285609487
3,R_1ogN3G1JEY1wbcQ,3,j,2,0,4448.400000095367,Legalization of marijuana,Hardening schools/Arming teachers,1,-1,3,6,4,0.8779867365698877,-1.4953986705126103,3.625,7.55,-3,8,4,-1.3400850189750917,0.43414800111656454,3.625,7.55,3,3,0.8779867365698877,1.3400850189750917,0,-6,2,0,2,0,0,-0.462098282405204,6,-2,-1.929546671629175,1,Right,4.448400000095368,5,3.0215714285609487
3,R_1ogN3G1JEY1wbcQ,4,j,2,0,5164.699999809265,Ban on research with animals,Tuition increases,1,-1,1,6,4,0.13862948472156122,-1.4953986705126103,3.625,7.55,-2,6,4,-0.9704063930509285,-1.4953986705126103,3.625,7.55,1,2,0.13862948472156122,0.9704063930509285,1,-3,0,1,0,-1,1,-0.8317769083293672,3,0,0,1,Right,5.164699999809265,5,3.0215714285609487
3,R_1ogN3G1JEY1wbcQ,6,j,2,0,3032.8999996185303,Legalization of marijuana,Mandatory drug tests for welfare recipients,1,-1,3,6,4,0.8779867365698877,-1.4953986705126103,3.625,7.55,-3,7,4,-1.3400850189750917,-0.530625334698023,3.625,7.55,3,3,0.8779867365698877,1.3400850189750917,0,-6,1,0,1,0,0,-0.462098282405204,6,-1,-0.9647733358145874,1,Right,3.03289999961853,3,3.0215714285609487
3,R_1ogN3G1JEY1wbcQ,7,j,2,0,2461.5999999046326,Legalization of marijuana,University Campus should be a Sanctuary,1,1,3,6,4,0.8779867365698877,-1.4953986705126103,3.625,7.55,0,4,2,-0.23104914120260203,-3.4249453421417853,3.625,7.55,3,0,0.8779867365698877,-0.23104914120260203,-3,-3,-2,3,2,3,-3,1.1090358777724898,3,2,1.929546671629175,1,Right,2.4615999999046325,2,3.0215714285609487
3,R_1ogN3G1JEY1wbcQ,9,f,1,1,2349.7999997138977,Physician-assisted suicide,Legalization of marijuana,1,-1,2,6,3,0.5083081106457245,-1.4953986705126103,3.625,7.55,3,6,4,0.8779867365698877,-1.4953986705126103,3.625,7.55,2,-3,0.5083081106457245,-0.8779867365698877,5,-1,0,5,0,5,-5,1.3862948472156122,-1,0,0,0,Left,2.349799999713898,2,3.0215714285609487
3,R_1ogN3G1JEY1wbcQ,10,j,2,0,3722.800000190735,Legalization of marijuana,Ban on research with animals,-1,-1,3,6,4,0.8779867365698877,-1.4953986705126103,3.625,7.55,1,6,4,0.13862948472156122,-1.4953986705126103,3.625,7.55,-3,-1,-0.8779867365698877,-0.13862948472156122,2,-2,0,2,0,-2,2,-0.7393572518483265,2,0,0,1,Right,3.722800000190735,4,3.0215714285609487
3,R_1ogN3G1JEY1wbcQ,12,f,1,1,3995.4000000953674,War on Drugs,Ban on research with animals,-1,1,-1,8,4,-0.6007277671267652,0.43414800111656454,3.625,7.55,1,6,4,0.13862948472156122,-1.4953986705126103,3.625,7.55,1,1,0.6007277671267652,0.13862948472156122,0,-2,2,0,2,0,0,0.462098282405204,-2,2,1.929546671629175,0,Left,3.9954000000953673,5,3.0215714285609487
3,R_1ogN3G1JEY1wbcQ,14,f,1,1,3366.699999809265,Physician-assisted suicide,Recognize Jerusalem as capital of Israel,1,-1,2,6,3,0.5083081106457245,-1.4953986705126103,3.625,7.55,-3,7,4,-1.3400850189750917,-0.530625334698023,3.625,7.55,2,3,0.5083081106457245,1.3400850189750917,-1,5,-1,1,1,-1,1,-0.8317769083293672,5,-1,-0.9647733358145874,0,Left,3.3666999998092653,4,3.0215714285609487
3,R_1ogN3G1JEY1wbcQ,15,j,2,0,3035.199999809265,Mandatory trigger warnings,Tuition increases,-1,-1,3,8,3,0.8779867365698877,0.43414800111656454,3.625,7.55,-2,6,4,-0.9704063930509285,-1.4953986705126103,3.625,7.55,-3,2,-0.8779867365698877,0.9704063930509285,5,-5,-2,5,2,-5,5,-1.848393129620816,5,2,1.929546671629175,1,Right,3.035199999809265,4,3.0215714285609487
3,R_1ogN3G1JEY1wbcQ,16,j,2,0,2103.699999809265,War on Drugs,Tuition increases,1,-1,-1,8,4,-0.6007277671267652,0.43414800111656454,3.625,7.55,-2,6,4,-0.9704063930509285,-1.4953986705126103,3.625,7.55,-1,2,-0.6007277671267652,0.9704063930509285,3,-1,-2,3,2,-3,3,-1.5711341601776936,1,2,1.929546671629175,1,Right,2.103699999809265,1,3.0215714285609487
3,R_1ogN3G1JEY1wbcQ,17,j,2,0,5197.700000286102,Ban on research with animals,Recognize Jerusalem as capital of Israel,-1,-1,1,6,4,0.13862948472156122,-1.4953986705126103,3.625,7.55,-3,7,4,-1.3400850189750917,-0.530625334698023,3.625,7.55,-1,3,-0.13862948472156122,1.3400850189750917,4,-4,1,4,1,-4,4,-1.478714503696653,4,-1,-0.9647733358145874,1,Right,5.197700000286102,5,3.0215714285609487
3,R_1ogN3G1JEY1wbcQ,18,j,2,0,3225.0999999046326,Tuition increases,Ban on research with animals,1,-1,-2,6,4,-0.9704063930509285,-1.4953986705126103,3.625,7.55,1,6,4,0.13862948472156122,-1.4953986705126103,3.625,7.55,-2,-1,-0.9704063930509285,-0.13862948472156122,1,3,0,1,0,-1,1,-0.8317769083293672,-3,0,0,1,Right,3.2250999999046326,4,3.0215714285609487
3,R_1ogN3G1JEY1wbcQ,19,j,2,0,5151.099999904633,Recognize Jerusalem as capital of Israel,Physician-assisted suicide,1,-1,-3,7,4,-1.3400850189750917,-0.530625334698023,3.625,7.55,2,6,3,0.5083081106457245,-1.4953986705126103,3.625,7.55,-3,-2,-1.3400850189750917,-0.5083081106457245,1,5,-1,1,1,-1,1,-0.8317769083293672,-5,1,0.9647733358145874,1,Right,5.151099999904632,5,3.0215714285609487
3,R_1ogN3G1JEY1wbcQ,20,j,2,0,2077,Tuition increases,Remove Christopher Columbus statues,1,1,-2,6,4,-0.9704063930509285,-1.4953986705126103,3.625,7.55,3,8,4,0.8779867365698877,0.43414800111656454,3.625,7.55,-2,3,-0.9704063930509285,0.8779867365698877,5,5,2,5,2,-5,5,-1.848393129620816,-5,-2,-1.929546671629175,1,Right,2.077,1,3.0215714285609487
3,R_1ogN3G1JEY1wbcQ,21,j,2,0,3776.3999996185303,Religious exemptions for discrimination laws,Ban on research with animals,-1,1,-2,8,2,-0.9704063930509285,0.43414800111656454,3.625,7.55,1,6,4,0.13862948472156122,-1.4953986705126103,3.625,7.55,2,1,0.9704063930509285,0.13862948472156122,-1,3,-2,1,2,1,-1,0.8317769083293672,-3,2,1.929546671629175,1,Right,3.7763999996185302,4,3.0215714285609487
3,R_1ogN3G1JEY1wbcQ,22,j,2,0,2748.4000000953674,Remove Christopher Columbus statues,Ban on research with animals,-1,1,3,8,4,0.8779867365698877,0.43414800111656454,3.625,7.55,1,6,4,0.13862948472156122,-1.4953986705126103,3.625,7.55,-3,1,-0.8779867365698877,0.13862948472156122,4,-2,-2,4,2,-4,4,-1.016616221291449,2,2,1.929546671629175,1,Right,2.7484000000953674,3,3.0215714285609487
3,R_1ogN3G1JEY1wbcQ,23,j,2,0,4908.300000190735,Religious exemptions for discrimination laws,Legalization of marijuana,-1,1,-2,8,2,-0.9704063930509285,0.43414800111656454,3.625,7.55,3,6,4,0.8779867365698877,-1.4953986705126103,3.625,7.55,2,3,0.9704063930509285,0.8779867365698877,1,5,-2,1,2,-1,1,0.09241965648104078,-5,2,1.929546671629175,1,Right,4.908300000190735,5,3.0215714285609487
3,R_1ogN3G1JEY1wbcQ,24,f,1,1,3578.3999996185303,Recognize Jerusalem as capital of Israel,War on Drugs,-1,1,-3,7,4,-1.3400850189750917,-0.530625334698023,3.625,7.55,-1,8,4,-0.6007277671267652,0.43414800111656454,3.625,7.55,3,-1,1.3400850189750917,-0.6007277671267652,4,-2,-1,4,1,4,-4,1.940812786101857,-2,-1,-0.9647733358145876,0,Left,3.5783999996185303,4,3.0215714285609487
3,R_1ogN3G1JEY1wbcQ,25,f,1,1,1770.9000000953674,Remove police from schools,War on Drugs,-1,1,3,8,4,0.8779867365698877,0.43414800111656454,3.625,7.55,-1,8,4,-0.6007277671267652,0.43414800111656454,3.625,7.55,-3,-1,-0.8779867365698877,-0.6007277671267652,-2,4,0,2,0,-2,2,-0.27725896944312245,4,0,0,0,Left,1.7709000000953674,1,3.0215714285609487
3,R_1ogN3G1JEY1wbcQ,26,f,1,1,3619.5999999046326,Physician-assisted suicide,Safe injection locations,1,-1,2,6,3,0.5083081106457245,-1.4953986705126103,3.625,7.55,0,4,2,-0.23104914120260203,-3.4249453421417853,3.625,7.55,2,-0,0.5083081106457245,0.23104914120260203,2,2,2,2,2,2,-2,0.27725896944312245,2,2,1.929546671629175,0,Left,3.6195999999046324,4,3.0215714285609487
3,R_1ogN3G1JEY1wbcQ,27,j,2,0,2543.9000000953674,Mandatory drug tests for welfare recipients,Affirmative action,1,1,-3,7,4,-1.3400850189750917,-0.530625334698023,3.625,7.55,2,8,4,0.5083081106457245,0.43414800111656454,3.625,7.55,-3,2,-1.3400850189750917,0.5083081106457245,5,5,1,5,1,-5,5,-1.848393129620816,-5,-1,-0.9647733358145876,1,Right,2.5439000000953675,2,3.0215714285609487
3,R_1ogN3G1JEY1wbcQ,29,j,2,0,2454.5999999046326,War on Drugs,Religious exemptions for discrimination laws,1,-1,-1,8,4,-0.6007277671267652,0.43414800111656454,3.625,7.55,-2,8,2,-0.9704063930509285,0.43414800111656454,3.625,7.55,-1,2,-0.6007277671267652,0.9704063930509285,3,-1,0,3,0,-3,3,-1.5711341601776936,1,0,0,1,Right,2.4545999999046324,2,3.0215714285609487
3,R_1ogN3G1JEY1wbcQ,30,f,1,1,2327.2999997138977,War on Drugs,Tuition increases,-1,1,-1,8,4,-0.6007277671267652,0.43414800111656454,3.625,7.55,-2,6,4,-0.9704063930509285,-1.4953986705126103,3.625,7.55,1,-2,0.6007277671267652,-0.9704063930509285,3,1,2,3,2,3,-3,1.5711341601776936,1,2,1.929546671629175,0,Left,2.327299999713898,2,3.0215714285609487
3,R_1ogN3G1JEY1wbcQ,31,j,2,0,3051.699999809265,Recognize Jerusalem as capital of Israel,Recognize Jerusalem as capital of Israel,1,-1,-3,7,4,-1.3400850189750917,-0.530625334698023,3.625,7.55,-3,7,4,-1.3400850189750917,-0.530625334698023,3.625,7.55,-3,3,-1.3400850189750917,1.3400850189750917,6,0,0,6,0,-6,6,-2.6801700379501834,0,0,0,1,Right,3.0516999998092653,4,3.0215714285609487
3,R_1ogN3G1JEY1wbcQ,32,j,2,0,3513.9000000953674,Ban on research with animals,Religious exemptions for discrimination laws,-1,-1,1,6,4,0.13862948472156122,-1.4953986705126103,3.625,7.55,-2,8,2,-0.9704063930509285,0.43414800111656454,3.625,7.55,-1,2,-0.13862948472156122,0.9704063930509285,3,-3,2,3,2,-3,3,-1.1090358777724898,3,-2,-1.929546671629175,1,Right,3.5139000000953673,4,3.0215714285609487
3,R_1ogN3G1JEY1wbcQ,33,f,1,1,3415.2999997138977,Legalization of marijuana,Religious exemptions for discrimination laws,1,1,3,6,4,0.8779867365698877,-1.4953986705126103,3.625,7.55,-2,8,2,-0.9704063930509285,0.43414800111656454,3.625,7.55,3,-2,0.8779867365698877,-0.9704063930509285,5,5,-2,5,2,5,-5,1.848393129620816,5,-2,-1.929546671629175,0,Left,3.4152999997138975,4,3.0215714285609487
3,R_1ogN3G1JEY1wbcQ,34,f,1,1,2401.9000000953674,Ban on research with animals,Recognize Jerusalem as capital of Israel,1,1,1,6,4,0.13862948472156122,-1.4953986705126103,3.625,7.55,-3,7,4,-1.3400850189750917,-0.530625334698023,3.625,7.55,1,-3,0.13862948472156122,-1.3400850189750917,4,4,-1,4,1,4,-4,1.478714503696653,4,-1,-0.9647733358145874,0,Left,2.4019000000953676,2,3.0215714285609487
3,R_1ogN3G1JEY1wbcQ,35,f,1,1,2812,Religious exemptions for discrimination laws,Climate change legislation,-1,-1,-2,8,2,-0.9704063930509285,0.43414800111656454,3.625,7.55,3,8,4,0.8779867365698877,0.43414800111656454,3.625,7.55,2,-3,0.9704063930509285,-0.8779867365698877,5,-5,0,5,0,5,-5,1.848393129620816,-5,0,0,0,Left,2.812,3,3.0215714285609487
3,R_1ogN3G1JEY1wbcQ,36,j,2,0,3304.300000190735,Ban on research with animals,Ban on research with animals,-1,1,1,6,4,0.13862948472156122,-1.4953986705126103,3.625,7.55,1,6,4,0.13862948472156122,-1.4953986705126103,3.625,7.55,-1,1,-0.13862948472156122,0.13862948472156122,2,0,0,2,0,-2,2,-0.27725896944312245,0,0,0,1,Right,3.304300000190735,4,3.0215714285609487
3,R_1ogN3G1JEY1wbcQ,37,f,1,1,3862.8999996185303,Ban on research with animals,Allow alt-right speakers on campus,-1,1,1,6,4,0.13862948472156122,-1.4953986705126103,3.625,7.55,-3,8,4,-1.3400850189750917,0.43414800111656454,3.625,7.55,-1,-3,-0.13862948472156122,-1.3400850189750917,2,4,-2,2,2,2,-2,1.2014555342535305,4,-2,-1.929546671629175,0,Left,3.8628999996185303,5,3.0215714285609487
3,R_1ogN3G1JEY1wbcQ,38,f,1,1,3424.199999809265,Safe injection locations,Affirmative action,-1,-1,0,4,2,-0.23104914120260203,-3.4249453421417853,3.625,7.55,2,8,4,0.5083081106457245,0.43414800111656454,3.625,7.55,-0,-2,0.23104914120260203,-0.5083081106457245,2,-2,-4,2,4,2,-2,0.7393572518483265,-2,-4,-3.85909334325835,0,Left,3.424199999809265,4,3.0215714285609487
3,R_1ogN3G1JEY1wbcQ,39,j,2,0,2779.5999999046326,Ban on research with animals,Student worker unionization,-1,1,1,6,4,0.13862948472156122,-1.4953986705126103,3.625,7.55,3,8,4,0.8779867365698877,0.43414800111656454,3.625,7.55,-1,3,-0.13862948472156122,0.8779867365698877,4,2,2,4,2,-4,4,-1.016616221291449,-2,-2,-1.929546671629175,1,Right,2.7795999999046326,3,3.0215714285609487
3,R_1ogN3G1JEY1wbcQ,40,j,2,0,5049.599999904633,Gun-free campus police,Mandatory drug tests for welfare recipients,-1,1,3,8,4,0.8779867365698877,0.43414800111656454,3.625,7.55,-3,7,4,-1.3400850189750917,-0.530625334698023,3.625,7.55,-3,-3,-0.8779867365698877,-1.3400850189750917,0,-6,-1,0,1,0,0,0.462098282405204,6,1,0.9647733358145876,1,Right,5.049599999904633,5,3.0215714285609487
3,R_1ogN3G1JEY1wbcQ,42,j,2,0,3291.5,Tuition increases,War on Drugs,-1,-1,-2,6,4,-0.9704063930509285,-1.4953986705126103,3.625,7.55,-1,8,4,-0.6007277671267652,0.43414800111656454,3.625,7.55,2,1,0.9704063930509285,0.6007277671267652,-1,1,2,1,2,1,-1,0.36967862592416323,-1,-2,-1.929546671629175,1,Right,3.2915,4,3.0215714285609487
3,R_1ogN3G1JEY1wbcQ,43,f,1,1,4742.699999809265,Ban on research with animals,Legalization of marijuana,1,-1,1,6,4,0.13862948472156122,-1.4953986705126103,3.625,7.55,3,6,4,0.8779867365698877,-1.4953986705126103,3.625,7.55,1,-3,0.13862948472156122,-0.8779867365698877,4,-2,0,4,0,4,-4,1.016616221291449,-2,0,0,0,Left,4.742699999809265,5,3.0215714285609487
3,R_1ogN3G1JEY1wbcQ,44,f,1,1,2876.2000002861023,War on Drugs,Mandatory drug tests for welfare recipients,-1,1,-1,8,4,-0.6007277671267652,0.43414800111656454,3.625,7.55,-3,7,4,-1.3400850189750917,-0.530625334698023,3.625,7.55,1,-3,0.6007277671267652,-1.3400850189750917,4,2,1,4,1,4,-4,1.940812786101857,2,1,0.9647733358145876,0,Left,2.876200000286102,3,3.0215714285609487
3,R_1ogN3G1JEY1wbcQ,45,f,1,1,2567.2999997138977,Ban on research with animals,Physician-assisted suicide,1,-1,1,6,4,0.13862948472156122,-1.4953986705126103,3.625,7.55,2,6,3,0.5083081106457245,-1.4953986705126103,3.625,7.55,1,-2,0.13862948472156122,-0.5083081106457245,3,-1,0,3,0,3,-3,0.6469375953672857,-1,0,0,0,Left,2.5672999997138977,3,3.0215714285609487
3,R_1ogN3G1JEY1wbcQ,46,f,1,1,2863.199999809265,On campus concealed carry,Safe injection locations,-1,1,-3,8,4,-1.3400850189750917,0.43414800111656454,3.625,7.55,0,4,2,-0.23104914120260203,-3.4249453421417853,3.625,7.55,3,0,1.3400850189750917,-0.23104914120260203,3,-3,4,3,4,3,-3,1.5711341601776938,-3,4,3.85909334325835,0,Left,2.863199999809265,3,3.0215714285609487
3,R_1ogN3G1JEY1wbcQ,47,f,1,1,3925.4000000953674,Safe injection locations,Physician-assisted suicide,1,-1,0,4,2,-0.23104914120260203,-3.4249453421417853,3.625,7.55,2,6,3,0.5083081106457245,-1.4953986705126103,3.625,7.55,0,-2,-0.23104914120260203,-0.5083081106457245,2,-2,-2,2,2,2,-2,0.27725896944312245,-2,-2,-1.929546671629175,0,Left,3.9254000000953675,5,3.0215714285609487
3,R_1ogN3G1JEY1wbcQ,48,j,2,0,3739.5,Legalization of marijuana,Recognize Jerusalem as capital of Israel,-1,-1,3,6,4,0.8779867365698877,-1.4953986705126103,3.625,7.55,-3,7,4,-1.3400850189750917,-0.530625334698023,3.625,7.55,-3,3,-0.8779867365698877,1.3400850189750917,6,-6,1,6,1,-6,6,-2.2180717555449796,6,-1,-0.9647733358145874,1,Right,3.7395,4,3.0215714285609487
3,R_1ogN3G1JEY1wbcQ,49,f,1,1,4726.300000190735,Safe injection locations,Mandatory drug tests for welfare recipients,-1,1,0,4,2,-0.23104914120260203,-3.4249453421417853,3.625,7.55,-3,7,4,-1.3400850189750917,-0.530625334698023,3.625,7.55,-0,-3,0.23104914120260203,-1.3400850189750917,3,3,-3,3,3,3,-3,1.5711341601776938,3,-3,-2.8943200074437625,0,Left,4.726300000190735,5,3.0215714285609487
3,R_1ogN3G1JEY1wbcQ,50,f,1,1,1924.8000001907349,Ban on research with animals,War on Drugs,1,1,1,6,4,0.13862948472156122,-1.4953986705126103,3.625,7.55,-1,8,4,-0.6007277671267652,0.43414800111656454,3.625,7.55,1,-1,0.13862948472156122,-0.6007277671267652,2,2,-2,2,2,2,-2,0.7393572518483265,2,-2,-1.929546671629175,0,Left,1.9248000001907348,1,3.0215714285609487
3,R_1ogN3G1JEY1wbcQ,51,f,1,1,5922.700000286102,Religious exemptions for discrimination laws,Legalization of marijuana,-1,-1,-2,8,2,-0.9704063930509285,0.43414800111656454,3.625,7.55,3,6,4,0.8779867365698877,-1.4953986705126103,3.625,7.55,2,-3,0.9704063930509285,-0.8779867365698877,5,-5,2,5,2,5,-5,1.848393129620816,-5,2,1.929546671629175,0,Left,5.9227000002861026,5,3.0215714285609487
3,R_1ogN3G1JEY1wbcQ,52,j,2,0,5891.400000095367,University Campus should be a Sanctuary,Lift COVID lockdowns,1,-1,0,4,2,-0.23104914120260203,-3.4249453421417853,3.625,7.55,-2,8,4,-0.9704063930509285,0.43414800111656454,3.625,7.55,0,2,-0.23104914120260203,0.9704063930509285,2,-2,4,2,4,-2,2,-1.2014555342535305,2,-4,-3.85909334325835,1,Right,5.891400000095367,5,3.0215714285609487
3,R_1ogN3G1JEY1wbcQ,53,j,2,0,3709.2999997138977,Lift COVID lockdowns,Mandatory drug tests for welfare recipients,-1,-1,-2,8,4,-0.9704063930509285,0.43414800111656454,3.625,7.55,-3,7,4,-1.3400850189750917,-0.530625334698023,3.625,7.55,2,3,0.9704063930509285,1.3400850189750917,1,-1,-1,1,1,-1,1,-0.36967862592416323,1,1,0.9647733358145876,1,Right,3.7092999997138976,4,3.0215714285609487
3,R_1ogN3G1JEY1wbcQ,54,f,1,1,1776.4000000953674,War on Drugs,Affirmative action,-1,-1,-1,8,4,-0.6007277671267652,0.43414800111656454,3.625,7.55,2,8,4,0.5083081106457245,0.43414800111656454,3.625,7.55,1,-2,0.6007277671267652,-0.5083081106457245,3,-3,0,3,0,3,-3,1.1090358777724898,-3,0,0,0,Left,1.7764000000953675,1,3.0215714285609487
3,R_1ogN3G1JEY1wbcQ,56,j,2,0,1509.2000002861023,Legalization of marijuana,Black Lives Matter,-1,1,3,6,4,0.8779867365698877,-1.4953986705126103,3.625,7.55,3,8,4,0.8779867365698877,0.43414800111656454,3.625,7.55,-3,3,-0.8779867365698877,0.8779867365698877,6,0,2,6,2,-6,6,-1.7559734731397754,0,-2,-1.929546671629175,1,Right,1.5092000002861023,1,3.0215714285609487
3,R_1ogN3G1JEY1wbcQ,57,f,1,1,2816,Legalization of marijuana,War on Drugs,1,-1,3,6,4,0.8779867365698877,-1.4953986705126103,3.625,7.55,-1,8,4,-0.6007277671267652,0.43414800111656454,3.625,7.55,3,1,0.8779867365698877,0.6007277671267652,2,4,-2,2,2,2,-2,0.27725896944312245,4,-2,-1.929546671629175,0,Left,2.816,3,3.0215714285609487
3,R_1ogN3G1JEY1wbcQ,58,f,1,1,2022.4000000953674,War on Drugs,Affirmative action,-1,1,-1,8,4,-0.6007277671267652,0.43414800111656454,3.625,7.55,2,8,4,0.5083081106457245,0.43414800111656454,3.625,7.55,1,2,0.6007277671267652,0.5083081106457245,-1,-3,0,1,0,-1,1,0.09241965648104078,-3,0,0,0,Left,2.0224000000953675,1,3.0215714285609487
3,R_1ogN3G1JEY1wbcQ,59,j,2,0,1768.9000000953674,Tuition increases,Abolishing private prisons,-1,1,-2,6,4,-0.9704063930509285,-1.4953986705126103,3.625,7.55,3,8,4,0.8779867365698877,0.43414800111656454,3.625,7.55,2,3,0.9704063930509285,0.8779867365698877,1,5,2,1,2,-1,1,0.09241965648104078,-5,-2,-1.929546671629175,1,Right,1.7689000000953674,1,3.0215714285609487
