parcode,trial,rt,choice,item_left,item_right,valid
mar,0,1631.000000,1,-15,15
mar,1,3203.000000,-1,5,10
mar,2,1515.000000,-1,5,-5
mar,3,1853.000000,1,-10,15
mar,4,1345.000000,1,10,-5
mar,5,2019.000000,-1,-5,0
mar,6,1133.000000,-1,0,15
mar,7,981.000000,1,15,-10
mar,8,1933.000000,-1,10,-10
mar,9,1468.000000,-1,5,-10
mar,10,1239.000000,-1,0,15
mar,11,1801.000000,1,15,-15
mar,12,999.000000,1,15,5
mar,13,1009.000000,1,15,-5
mar,14,1629.000000,-1,-15,15
mar,15,1259.000000,1,-15,5
mar,16,2849.000000,1,10,15
mar,17,1737.000000,1,10,-5
mar,18,3189.000000,-1,-10,10
mar,19,953.000000,1,5,-5
mar,20,1153.000000,-1,-10,-15
mar,21,1171.000000,1,10,5
mar,22,1561.000000,-1,5,10
mar,23,1063.000000,1,15,-10
mar,24,1505.000000,-1,5,15
mar,25,1149.000000,-1,-5,15
mar,26,1175.000000,-1,5,-15
mar,27,1092.000000,-1,-10,15
mar,28,1797.000000,1,-5,0
mar,29,1138.000000,-1,-5,10
mar,30,2129.000000,-1,0,5
mar,31,965.000000,1,-10,-5
mar,32,1551.000000,1,15,0
mar,33,1466.000000,-1,10,-15
mar,34,3293.000000,-1,0,5
mar,35,1511.000000,-1,0,-10
mar,36,2412.000000,1,-15,0
mar,37,1585.000000,1,15,0
mar,38,1219.000000,1,10,-10
mar,39,1773.000000,-1,-5,10
mar,40,3913.000000,-1,-15,5
mar,41,3095.000000,-1,-15,15
mar,42,1325.000000,-1,5,15
mar,43,1318.000000,1,-15,-10
mar,44,2750.000000,-1,5,10
mar,45,1097.000000,1,15,-10
mar,46,1356.000000,1,5,0
mar,47,1081.000000,-1,-5,5
mar,48,1499.000000,1,15,5
mar,49,1811.000000,1,-15,5
mar,50,1527.000000,-1,0,-5
mar,51,1367.000000,1,-15,10
mar,52,1493.000000,1,-15,-10
mar,53,1661.000000,-1,5,10
mar,54,2163.000000,-1,5,-15
mar,55,1005.000000,1,-10,5
mar,56,1001.000000,-1,0,-15
mar,57,960.000000,-1,5,-15
mar,58,1597.000000,-1,0,5
mar,59,1348.000000,-1,-10,10
mar,60,2841.000000,1,5,-5
mar,61,1172.000000,1,15,-10
mar,62,1075.000000,1,15,5
mar,63,1108.000000,1,-10,0
mar,64,1016.000000,-1,5,15
mar,65,1212.000000,-1,-5,-15
mar,66,1109.000000,-1,-5,15
mar,67,1190.000000,-1,-10,-15
mar,68,889.000000,-1,5,15
mar,69,1303.000000,1,-15,0
mar,70,1806.000000,1,-15,10
mar,71,1065.000000,1,-10,0
mar,72,1091.000000,-1,0,5
mar,73,1056.000000,1,-5,10
mar,74,1505.000000,1,5,15
mar,75,1389.000000,-1,-15,-10
mar,76,1131.000000,1,15,5
mar,77,1189.000000,1,10,5
mar,78,1632.000000,1,0,5
mar,79,1173.000000,-1,0,10
mar,80,823.000000,-1,0,-5
mar,81,1047.000000,1,10,-5
mar,82,1940.000000,-1,-10,-15
mar,83,1111.000000,1,10,0
mar,84,963.000000,-1,0,15
mar,85,1089.000000,-1,0,5
mar,86,1055.000000,1,-15,-5
mar,87,1296.000000,-1,0,-15
mar,88,1194.000000,1,10,5
mar,89,1254.000000,1,-10,0
mar,90,1328.000000,-1,-15,10
mar,91,1016.000000,1,-15,0
mar,92,1295.000000,1,-5,0
mar,93,1161.000000,-1,-10,15
mar,94,958.000000,1,-5,5
mar,95,1251.000000,1,-15,-5
mar,96,1268.000000,1,5,10
mar,97,935.000000,1,-5,0
mar,98,1215.000000,-1,-5,-10
mar,99,2176.000000,1,-10,-5
mar,100,1226.000000,1,-15,-5
mar,101,788.000000,-1,0,10
mar,102,1288.000000,-1,-5,-10
mar,103,2493.000000,-1,5,-5
mar,104,1347.000000,1,-10,0
mar,105,925.000000,1,10,-10
mar,106,1835.000000,1,5,-15
mar,107,882.000000,1,10,-5
mar,108,1008.000000,1,15,5
mar,109,1339.000000,1,15,10
mar,110,1255.000000,1,-5,-10
mar,111,1156.000000,-1,5,15
mar,112,960.000000,1,-15,-10
mar,113,1295.000000,1,-10,-5
mar,114,1543.000000,1,-15,15
mar,115,2951.000000,1,5,10
mar,116,1167.000000,-1,5,-5
mar,117,1331.000000,1,-10,15
mar,118,1207.000000,-1,10,-5
mar,119,1251.000000,1,-5,0
mar,120,1973.000000,-1,0,15
mar,121,1183.000000,-1,15,-10
mar,122,1717.000000,-1,10,-10
mar,123,3211.000000,-1,5,-10
mar,124,1567.000000,-1,0,15
mar,125,1122.000000,1,15,-15
mar,126,2067.000000,1,15,5
mar,127,1075.000000,1,15,-5
mar,128,1077.000000,-1,-15,15
mar,129,1003.000000,-1,-15,5
mar,130,1651.000000,1,10,15
mar,131,1027.000000,1,10,-5
mar,132,1093.000000,-1,-10,10
mar,133,1361.000000,1,5,-5
mar,134,1605.000000,-1,-10,-15
mar,135,989.000000,1,10,5
mar,136,1455.000000,-1,5,10
mar,137,1105.000000,1,15,-10
mar,138,1419.000000,-1,5,15
mar,139,961.000000,-1,-5,15
mar,140,1123.000000,-1,5,-15
mar,141,1389.000000,-1,-10,15
mar,142,1173.000000,-1,-5,0
mar,143,1219.000000,-1,-5,10
mar,144,1329.000000,-1,0,5
mar,145,1341.000000,1,-10,-5
mar,146,1513.000000,1,15,0
mar,147,1267.000000,1,10,-15
mar,148,1375.000000,-1,0,5
mar,149,1461.000000,-1,0,-10
mar,150,1261.000000,1,-15,0
mar,151,941.000000,1,15,0
mar,152,1441.000000,1,10,-10
mar,153,1191.000000,-1,-5,10
mar,154,2833.000000,1,-15,5
mar,155,1915.000000,1,-15,15
mar,156,1929.000000,-1,5,15
mar,157,1281.000000,1,-15,-10
mar,158,1773.000000,1,5,10
mar,159,1147.000000,1,15,-10
mar,160,999.000000,-1,5,0
mar,161,1363.000000,-1,-5,5
mar,162,951.000000,1,15,5
mar,163,1079.000000,1,-15,5
mar,164,977.000000,-1,0,-5
mar,165,1349.000000,1,-15,-10
mar,166,1157.000000,-1,5,10
mar,167,1111.000000,-1,5,-15
mar,168,1067.000000,1,-10,5
mar,169,983.000000,-1,0,-15
mar,170,727.000000,-1,5,-15
mar,171,1663.000000,1,0,5
mar,172,1665.000000,-1,-10,10
mar,173,1899.000000,-1,5,-5
mar,174,953.000000,1,15,-10
mar,175,968.000000,1,15,5
mar,176,1179.000000,1,-10,0
mar,177,1255.000000,-1,5,15
mar,178,1487.000000,-1,-5,-15
mar,179,1109.000000,-1,-5,15
mar,180,1219.000000,-1,-10,-15
mar,181,959.000000,-1,5,15
mar,182,713.000000,1,-15,0
mar,183,1341.000000,1,-15,10
mar,184,1282.000000,1,10,15
mar,185,1317.000000,1,-10,0
mar,186,2248.000000,-1,0,5
mar,187,1339.000000,1,-5,10
mar,188,1301.000000,-1,5,15
mar,189,1501.000000,-1,-15,-10
mar,190,1317.000000,1,15,5
mar,191,1173.000000,1,10,5
mar,192,2339.000000,-1,0,5
mar,193,1419.000000,-1,0,10
mar,194,1789.000000,1,0,-5
mar,195,1135.000000,1,10,-5
mar,196,1104.000000,-1,-10,-15
mar,197,1051.000000,1,10,0
mar,198,1047.000000,-1,0,15
mar,199,1145.000000,-1,0,5
mar,200,751.000000,1,-15,-5
mar,201,1104.000000,-1,0,-15
mar,202,2174.000000,1,10,5
mar,203,1703.000000,1,-10,0
mar,204,871.000000,1,-15,10
mar,205,993.000000,1,-15,0
mar,206,1142.000000,-1,10,15
mar,207,1073.000000,-1,0,-15
mar,208,1140.000000,1,-5,0
mar,209,1232.000000,1,15,-15
mar,210,1404.000000,-1,-10,15
mar,211,1413.000000,1,-5,5
mar,212,1189.000000,1,15,10
mar,213,1150.000000,-1,-15,-5
mar,214,879.000000,-1,-15,5
mar,215,1311.000000,-1,5,10
mar,216,1306.000000,1,-5,0
mar,217,1471.000000,1,-5,-10
mar,218,1427.000000,1,-10,-5
mar,219,2354.000000,-1,-15,-5
mar,220,1069.000000,-1,0,10
mar,221,1151.000000,-1,-5,-10
mar,222,1399.000000,1,5,-5
mar,223,1023.000000,1,-10,0
mar,224,1475.000000,-1,10,-10
mar,225,1515.000000,-1,5,-15
mar,226,961.000000,1,10,-5
mar,227,1055.000000,1,15,5
mar,228,1197.000000,1,15,10
mar,229,1360.000000,-1,-5,-10
mar,230,1159.000000,-1,5,15
mar,231,973.000000,1,-15,-10
mar,232,2192.000000,1,-10,-5
mar,233,855.000000,1,-15,15
mar,234,1749.000000,-1,5,10
mar,235,779.000000,1,5,-5
mar,236,895.000000,1,-10,15
mar,237,795.000000,1,10,-5
mar,238,1275.000000,1,-5,0
mar,239,1001.000000,-1,0,15
mar,240,1813.000000,1,15,-10
mar,241,1903.000000,-1,10,-10
mar,242,1393.000000,-1,5,-10
mar,243,1135.000000,-1,0,15
mar,244,975.000000,1,15,-15
mar,245,827.000000,1,15,5
mar,246,829.000000,1,15,-5
mar,247,937.000000,-1,-15,15
mar,248,979.000000,-1,-15,5
mar,249,1371.000000,1,10,15
mar,250,1029.000000,1,10,-5
mar,251,1159.000000,-1,-10,10
mar,252,893.000000,1,5,-5
mar,253,1261.000000,-1,-10,-15
mar,254,881.000000,1,10,5
mar,255,1293.000000,-1,5,10
mar,256,935.000000,1,15,-10
mar,257,1713.000000,-1,5,15
mar,258,1150.000000,-1,-5,15
mar,259,2141.000000,1,5,-15
mar,260,1035.000000,-1,-10,15
mar,261,1015.000000,-1,-5,0
mar,262,887.000000,-1,-5,10
mar,263,1139.000000,-1,0,5
mar,264,1379.000000,1,-10,-5
mar,265,931.000000,1,15,0
mar,266,1075.000000,1,10,-15
mar,267,1169.000000,-1,0,5
mar,268,1549.000000,-1,0,-10
mar,269,1023.000000,1,-15,0
mar,270,1005.000000,1,15,0
mar,271,883.000000,1,10,-10
mar,272,1073.000000,-1,-5,10
mar,273,1913.000000,1,-15,5
mar,274,1658.000000,-1,-15,15
mar,275,1372.000000,-1,5,15
mar,276,1222.000000,1,-15,-10
mar,277,1485.000000,1,5,10
mar,278,1513.000000,1,15,-10
mar,279,1230.000000,1,5,0
mar,280,1231.000000,-1,-5,5
mar,281,979.000000,1,15,5
mar,282,1035.000000,1,-15,5
mar,283,1153.000000,-1,0,-5
mar,284,957.000000,1,-15,10
mar,285,925.000000,1,-15,-10
mar,286,915.000000,-1,5,10
mar,287,1357.000000,-1,5,-15
mar,288,1501.000000,-1,-10,5
mar,289,1113.000000,-1,0,-15
mar,290,1732.000000,1,5,-15
mar,291,1540.000000,-1,0,5
mar,292,1173.000000,-1,-10,10
mar,293,1303.000000,1,5,-5
mar,294,851.000000,1,15,-10
mar,295,1025.000000,1,15,5
mar,296,1175.000000,1,-10,0
mar,297,1135.000000,-1,5,15
mar,298,1337.000000,-1,-5,-15
mar,299,1127.000000,-1,-5,15
mar,300,1251.000000,-1,-10,-15
mar,301,1163.000000,-1,5,15
mar,302,1217.000000,1,-15,0
mar,303,917.000000,1,-15,10
mar,304,1109.000000,1,10,15
mar,305,851.000000,1,-10,0
mar,306,1299.000000,1,0,5
mar,307,1085.000000,1,-5,10
mar,308,1289.000000,1,5,15
mar,309,1231.000000,-1,-15,-10
mar,310,1113.000000,1,15,5
mar,311,995.000000,1,10,5
mar,312,1023.000000,-1,0,5
mar,313,1193.000000,-1,0,10
mar,314,1196.000000,1,0,-5
mar,315,1043.000000,1,10,-5
mar,316,1115.000000,-1,-10,-15
mar,317,1046.000000,1,10,0
mar,318,1447.000000,-1,0,15
mar,319,1364.000000,-1,0,5
mar,320,1023.000000,1,-15,-5
mar,321,1083.000000,-1,0,-15
mar,322,1311.000000,1,10,5
mar,323,1517.000000,-1,-10,0
mar,324,1239.000000,-1,-15,10
mar,325,1338.000000,1,-15,0
mar,326,1105.000000,-1,10,15
mar,327,795.000000,-1,0,-15
mar,328,1383.000000,1,-5,0
mar,329,807.000000,1,15,-15
mar,330,903.000000,-1,-10,15
mar,331,1283.000000,1,-5,5
mar,332,931.000000,1,15,10
mar,333,787.000000,1,-15,-5
mar,334,1081.000000,1,-15,5
mar,335,1133.000000,-1,5,10
mar,336,909.000000,1,-5,0
mar,337,1003.000000,-1,-5,-10
mar,338,905.000000,1,-10,-5
mar,339,1292.000000,1,-15,-5
mar,340,1147.000000,-1,0,10
mar,341,1447.000000,-1,-5,-10
mar,342,1132.000000,-1,5,-5
mar,343,983.000000,1,-10,0
mar,344,1383.000000,1,10,-10
mar,345,1105.000000,-1,5,-15
mar,346,1227.000000,1,10,-5
mar,347,1113.000000,1,15,5
mar,348,1039.000000,1,15,10
mar,349,2275.000000,1,-5,-10
mar,350,949.000000,-1,5,15
mar,351,973.000000,1,-15,-10
mar,352,1027.000000,1,-10,-5
mar,353,1311.000000,-1,-15,15
mar,354,1303.000000,-1,5,10
mar,355,1245.000000,1,5,-5
mar,356,1015.000000,1,-10,15
mar,357,1864.000000,1,10,-5
mar,358,1257.000000,1,-5,0
mar,359,1277.000000,-1,0,15
mar,360,3547.000000,-1,15,-10
mar,361,1049.000000,-1,10,-10
mar,362,883.000000,-1,5,-10
mar,363,951.000000,-1,0,15
mar,364,1073.000000,1,15,-15
mar,365,1627.000000,1,15,5
mar,366,995.000000,1,15,-5
mar,367,919.000000,-1,-15,15
mar,368,1175.000000,-1,-15,5
mar,369,1947.000000,1,10,15
mar,370,991.000000,1,10,-5
mar,371,935.000000,-1,-10,10
mar,372,1019.000000,1,5,-5
mar,373,1685.000000,-1,-10,-15
mar,374,1223.000000,1,10,5
mar,375,1473.000000,-1,5,10
mar,376,1179.000000,1,15,-10
mar,377,1165.000000,-1,5,15
mar,378,1020.000000,-1,-5,15
mar,379,2977.000000,1,5,-15
mar,380,1345.000000,-1,-10,15
mar,381,813.000000,-1,-5,0
mar,382,1175.000000,-1,-5,10
mar,383,1629.000000,-1,0,5
mar,384,869.000000,1,-10,-5
mar,385,951.000000,1,15,0
mar,386,1545.000000,-1,10,-15
mar,387,1901.000000,-1,0,5
mar,388,1789.000000,-1,0,-10
mar,389,1134.000000,1,-15,0
mar,390,989.000000,1,15,0
mar,391,2011.000000,-1,10,-10
mar,392,1157.000000,1,-5,10
mar,393,981.000000,1,-15,5
mar,394,1271.000000,1,-15,15
mar,395,1247.000000,-1,5,15
mar,396,3237.000000,1,-15,-10
mar,397,1091.000000,-1,5,10
mar,398,923.000000,1,15,-10
mar,399,1391.000000,1,5,0
mar,400,1280.000000,-1,-5,5
mar,401,1156.000000,1,15,5
mar,402,942.000000,1,-15,5
mar,403,1035.000000,-1,0,-5
mar,404,1129.000000,-1,-15,10
mar,405,1366.000000,1,-15,-10
mar,406,1257.000000,-1,5,10
mar,407,1137.000000,-1,5,-15
mar,408,1053.000000,1,-10,5
mar,409,1155.000000,-1,0,-15
mar,410,1119.000000,-1,5,-15
mar,411,1125.000000,-1,0,5
mar,412,1141.000000,-1,-10,10
mar,413,1427.000000,1,5,-5
mar,414,1039.000000,1,15,-10
mar,415,963.000000,1,15,5
mar,416,1267.000000,1,-10,0
mar,417,1145.000000,-1,5,15
mar,418,1293.000000,-1,-5,-15
mar,419,1063.000000,-1,-5,15
mar,420,1439.000000,-1,-10,-15
mar,421,1759.000000,-1,5,15
mar,422,1227.000000,1,-15,0
mar,423,1945.000000,1,-15,10
mar,424,2025.000000,-1,10,15
mar,425,1011.000000,1,-10,0
mar,426,1306.000000,-1,0,5
mar,427,1157.000000,1,-5,10
mar,428,1125.000000,-1,5,15
mar,429,1687.000000,-1,-15,-10
mar,430,1122.000000,1,15,5
mar,431,1277.000000,1,10,5
mar,432,1349.000000,-1,0,5
mar,433,1187.000000,-1,0,10
mar,434,1313.000000,-1,0,-5
mar,435,1213.000000,1,10,-5
mar,436,1393.000000,-1,-10,-15
mar,437,1137.000000,1,10,0
mar,438,1007.000000,-1,0,15
mar,439,1069.000000,-1,0,5
mar,440,737.000000,1,-15,-5
mar,441,937.000000,-1,0,-15
mar,442,3717.000000,1,10,5
mar,443,1819.000000,1,-10,0
mar,444,1685.000000,-1,-15,10
mar,445,925.000000,1,-15,0
mar,446,1613.000000,-1,10,15
mar,447,1399.000000,-1,0,-15
mar,448,1201.000000,1,-5,0
mar,449,2414.000000,1,15,-15
mar,450,1379.000000,-1,-10,15
mar,451,2267.000000,1,-5,5
mar,452,913.000000,1,15,10
mar,453,1567.000000,1,-15,-5
mar,454,2541.000000,1,-15,5
mar,455,1007.000000,-1,5,10
mar,456,1121.000000,1,-5,0
mar,457,1183.000000,-1,-5,-10
mar,458,1067.000000,1,-10,-5
mar,459,903.000000,1,-15,-5
mar,460,891.000000,-1,0,10
mar,461,1261.000000,-1,-5,-10
mar,462,1312.000000,-1,5,-5
mar,463,967.000000,1,-10,0
mar,464,1815.000000,1,10,-10
mar,465,1245.000000,-1,5,-15
mar,466,1019.000000,1,10,-5
mar,467,1119.000000,1,15,5
mar,468,1201.000000,1,15,10
mar,469,1733.000000,-1,-5,-10
mar,470,1981.000000,-1,5,15
mar,471,975.000000,1,-15,-10
mar,472,1035.000000,1,-10,-5
sol,0,2611.000000,-1,-15,15
sol,1,2011.000000,-1,5,10
sol,2,1481.000000,-1,5,-5
sol,3,1923.000000,1,-10,15
sol,4,1047.000000,1,10,-5
sol,5,1154.000000,1,-5,0
sol,6,897.000000,-1,0,15
sol,7,747.000000,1,15,-10
sol,8,1229.000000,1,10,-10
sol,9,999.000000,-1,5,-10
sol,10,793.000000,-1,0,15
sol,11,657.000000,1,15,-15
sol,12,887.000000,1,15,5
sol,13,703.000000,1,15,-5
sol,14,3719.000000,-1,-15,15
sol,15,1007.000000,1,-15,5
sol,16,1709.000000,-1,10,15
sol,17,907.000000,1,10,-5
sol,18,2833.000000,-1,-10,10
sol,19,683.000000,1,5,-5
sol,20,2116.000000,-1,-10,-15
sol,21,1865.000000,1,10,5
sol,22,1343.000000,-1,5,10
sol,23,709.000000,1,15,-10
sol,24,1299.000000,-1,5,15
sol,25,1579.000000,1,-5,15
sol,26,851.000000,-1,5,-15
sol,27,1483.000000,1,-10,15
sol,28,1225.000000,1,-5,0
sol,29,1383.000000,-1,-5,10
sol,30,1091.000000,-1,0,5
sol,31,1363.000000,1,-10,-5
sol,32,825.000000,1,15,0
sol,33,1016.000000,-1,10,-15
sol,34,1013.000000,-1,0,5
sol,35,893.000000,-1,0,-10
sol,36,971.000000,1,-15,0
sol,37,959.000000,1,15,0
sol,38,659.000000,1,10,-10
sol,39,1233.000000,-1,-5,10
sol,40,869.000000,1,-15,5
sol,41,2053.000000,1,-15,15
sol,42,1423.000000,-1,5,15
sol,43,1107.000000,1,-15,-10
sol,44,1327.000000,-1,5,10
sol,45,1357.000000,1,15,-10
sol,46,2221.000000,1,5,0
sol,47,1675.000000,-1,-5,5
sol,48,1157.000000,1,15,5
sol,49,1171.000000,1,-15,5
sol,50,1017.000000,-1,0,-5
sol,51,1051.000000,1,-15,10
sol,52,985.000000,1,-15,-10
sol,53,747.000000,-1,5,10
sol,54,1045.000000,-1,5,-15
sol,55,945.000000,1,-10,5
sol,56,999.000000,-1,0,-15
sol,57,707.000000,-1,5,-15
sol,58,683.000000,-1,0,5
sol,59,689.000000,1,-10,10
sol,60,2761.000000,1,5,-5
sol,61,1499.000000,1,15,-10
sol,62,829.000000,1,15,5
sol,63,2691.000000,-1,-10,0
sol,64,1031.000000,-1,5,15
sol,65,2393.000000,-1,-5,-15
sol,66,1619.000000,-1,-5,15
sol,67,1199.000000,1,-10,-15
sol,68,915.000000,-1,5,15
sol,69,979.000000,1,-15,0
sol,70,1001.000000,1,-15,10
sol,71,1203.000000,-1,10,15
sol,72,1211.000000,1,-10,0
sol,73,719.000000,-1,0,5
sol,74,789.000000,-1,-5,10
sol,75,561.000000,-1,5,15
sol,76,1036.000000,1,-15,-10
sol,77,821.000000,1,15,5
sol,78,1070.000000,1,10,5
sol,79,1363.000000,-1,0,5
sol,80,1197.000000,-1,0,10
sol,81,1193.000000,-1,0,-5
sol,82,1226.000000,1,10,-5
sol,83,1381.000000,-1,-10,-15
sol,84,1148.000000,1,10,0
sol,85,1051.000000,-1,0,15
sol,86,1647.000000,-1,0,5
sol,87,814.000000,1,-15,-5
sol,88,971.000000,-1,0,-15
sol,89,1485.000000,1,10,5
sol,90,859.000000,1,-10,0
sol,91,881.000000,1,-15,10
sol,92,939.000000,1,-15,0
sol,93,1011.000000,-1,10,15
sol,94,1115.000000,-1,0,-15
sol,95,1660.000000,1,-5,0
sol,96,917.000000,-1,15,-15
sol,97,1514.000000,1,-10,15
sol,98,2487.000000,1,-5,5
sol,99,1087.000000,1,15,10
sol,100,1109.000000,1,-15,-5
sol,101,958.000000,1,-15,5
sol,102,1035.000000,-1,5,10
sol,103,2283.000000,1,-5,0
sol,104,2515.000000,-1,-5,-10
sol,105,921.000000,1,-10,-5
sol,106,1133.000000,1,-15,-5
sol,107,1307.000000,-1,0,10
sol,108,1993.000000,-1,-5,-10
sol,109,3351.000000,-1,5,-5
sol,110,867.000000,1,-10,0
sol,111,1913.000000,-1,10,-10
sol,112,907.000000,1,5,-15
sol,113,827.000000,1,10,-5
sol,114,1103.000000,1,15,5
sol,115,1347.000000,-1,15,10
sol,116,2337.000000,-1,-5,-10
sol,117,1396.000000,-1,5,15
sol,118,994.000000,1,-15,-10
sol,119,964.000000,1,-10,-5
sol,120,1225.000000,-1,-15,15
sol,121,1581.000000,-1,5,10
sol,122,1327.000000,-1,5,-5
sol,123,1137.000000,-1,-10,15
sol,124,1315.000000,1,10,-5
sol,125,1159.000000,1,-5,0
sol,126,885.000000,-1,0,15
sol,127,2343.000000,1,15,-10
sol,128,1171.000000,1,10,-10
sol,129,1151.000000,1,5,-10
sol,130,1099.000000,-1,0,15
sol,131,2401.000000,-1,15,-15
sol,132,1344.000000,1,15,5
sol,133,635.000000,1,15,-5
sol,134,2101.000000,-1,-15,15
sol,135,2921.000000,1,-15,5
sol,136,3175.000000,-1,10,15
sol,137,717.000000,1,10,-5
sol,138,1221.000000,-1,-10,10
sol,139,777.000000,1,5,-5
sol,140,1189.000000,-1,-10,-15
sol,141,1429.000000,1,10,5
sol,142,1601.000000,-1,5,10
sol,143,689.000000,1,15,-10
sol,144,1265.000000,-1,5,15
sol,145,1491.000000,-1,-5,15
sol,146,1211.000000,-1,5,-15
sol,147,1903.000000,-1,-10,15
sol,148,2943.000000,1,-5,0
sol,149,1917.000000,1,-5,10
sol,150,1133.000000,-1,0,5
sol,151,2029.000000,1,-10,-5
sol,152,847.000000,1,15,0
sol,153,1719.000000,-1,10,-15
sol,154,1311.000000,-1,0,5
sol,155,1365.000000,-1,0,-10
sol,156,631.000000,1,-15,0
sol,157,951.000000,1,15,0
sol,158,821.000000,1,10,-10
sol,159,4179.000000,1,-5,10
sol,160,1931.000000,-1,-15,5
sol,161,1663.000000,-1,-15,15
sol,162,1185.000000,-1,5,15
sol,163,1133.000000,1,-15,-10
sol,164,1233.000000,-1,5,10
sol,165,2273.000000,1,15,-10
sol,166,1757.000000,1,5,0
sol,167,1837.000000,-1,-5,5
sol,168,915.000000,1,15,5
sol,169,1307.000000,1,-15,5
sol,170,1639.000000,-1,0,-5
sol,171,867.000000,1,-15,10
sol,172,1057.000000,1,-15,-10
sol,173,1648.000000,-1,5,10
sol,174,1039.000000,-1,5,-15
sol,175,857.000000,1,-10,5
sol,176,931.000000,-1,0,-15
sol,177,895.000000,-1,5,-15
sol,178,570.000000,-1,0,5
sol,179,1670.000000,-1,-10,10
sol,180,2755.000000,-1,5,-5
sol,181,2053.000000,1,15,-10
sol,182,1186.000000,1,15,5
sol,183,931.000000,1,-10,0
sol,184,1199.000000,-1,5,15
sol,185,1409.000000,-1,-5,-15
sol,186,1557.000000,-1,-5,15
sol,187,3229.000000,1,-10,-15
sol,188,1317.000000,-1,5,15
sol,189,901.000000,1,-15,0
sol,190,1735.000000,1,-15,10
sol,191,1587.000000,-1,10,15
sol,192,799.000000,1,-10,0
sol,193,1351.000000,-1,0,5
sol,194,1271.000000,-1,-5,10
sol,195,897.000000,-1,5,15
sol,196,929.000000,1,-15,-10
sol,197,1008.000000,1,15,5
sol,198,2584.000000,1,10,5
sol,199,1155.000000,-1,0,5
sol,200,5441.000000,1,0,10
sol,201,1023.000000,-1,0,-5
sol,202,1795.000000,-1,10,-5
sol,203,1491.000000,-1,-10,-15
sol,204,1913.000000,-1,10,0
sol,205,1893.000000,-1,0,15
sol,206,1707.000000,-1,0,5
sol,207,926.000000,1,-15,-5
sol,208,971.000000,-1,0,-15
sol,209,1489.000000,1,10,5
sol,210,1415.000000,1,-10,0
sol,211,2359.000000,-1,-15,10
sol,212,1169.000000,1,-15,0
sol,213,1295.000000,-1,10,15
sol,214,871.000000,-1,0,-15
sol,215,1961.000000,1,-5,0
sol,216,2649.000000,-1,15,-15
sol,217,1485.000000,-1,-10,15
sol,218,1341.000000,-1,-5,5
sol,219,827.000000,1,15,10
sol,220,937.000000,1,-15,-5
sol,221,985.000000,1,-15,5
sol,222,1555.000000,-1,5,10
sol,223,1231.000000,1,-5,0
sol,224,1281.000000,-1,-5,-10
sol,225,1001.000000,1,-10,-5
sol,226,935.000000,1,-15,-5
sol,227,1845.000000,-1,0,10
sol,228,1449.000000,1,-5,-10
sol,229,887.000000,-1,5,-5
sol,230,915.000000,1,-10,0
sol,231,1199.000000,-1,10,-10
sol,232,784.000000,-1,5,-15
sol,233,1249.000000,1,10,-5
sol,234,937.000000,1,15,5
sol,235,1427.000000,1,15,10
sol,236,1062.000000,-1,-5,-10
sol,237,1163.000000,-1,5,15
sol,238,1630.000000,1,-15,-10
sol,239,1101.000000,1,-10,-5
sol,240,1447.000000,1,-15,15
sol,241,1603.000000,-1,5,10
sol,242,1675.000000,-1,5,-5
sol,243,1385.000000,1,-10,15
sol,244,1666.000000,-1,10,-5
sol,245,1137.000000,1,-5,0
sol,246,1063.000000,-1,0,15
sol,247,1171.000000,-1,15,-10
sol,248,1021.000000,-1,10,-10
sol,249,1465.000000,-1,5,-10
sol,250,2517.000000,1,0,15
sol,251,1039.000000,-1,15,-15
sol,252,923.000000,1,15,5
sol,253,1453.000000,-1,15,-5
sol,254,1189.000000,-1,-15,15
sol,255,1153.000000,1,-15,5
sol,256,1088.000000,-1,10,15
sol,257,1003.000000,1,10,-5
sol,258,1937.000000,1,-10,10
sol,259,799.000000,1,5,-5
sol,260,1239.000000,-1,-10,-15
sol,261,1205.000000,-1,10,5
sol,262,1649.000000,-1,5,10
sol,263,1453.000000,1,15,-10
sol,264,923.000000,-1,5,15
sol,265,1215.000000,-1,-5,15
sol,266,1125.000000,-1,5,-15
sol,267,2389.000000,-1,-10,15
sol,268,1445.000000,-1,-5,0
sol,269,1937.000000,-1,-5,10
sol,270,1181.000000,-1,0,5
sol,271,1463.000000,1,-10,-5
sol,272,1107.000000,1,15,0
sol,273,1331.000000,-1,10,-15
sol,274,1493.000000,-1,0,5
sol,275,1299.000000,-1,0,-10
sol,276,780.000000,1,-15,0
sol,277,979.000000,1,15,0
sol,278,997.000000,1,10,-10
sol,279,3093.000000,1,-5,10
sol,280,739.000000,1,-15,5
sol,281,731.000000,1,-15,15
sol,282,1149.000000,-1,5,15
sol,283,859.000000,1,-15,-10
sol,284,1967.000000,-1,5,10
sol,285,1925.000000,1,15,-10
sol,286,2023.000000,-1,5,0
sol,287,3179.000000,1,-5,5
sol,288,867.000000,1,15,5
sol,289,925.000000,1,-15,5
sol,290,6393.000000,1,0,-5
sol,291,1403.000000,1,-15,10
sol,292,1709.000000,1,-15,-10
sol,293,1917.000000,-1,5,10
sol,294,1161.000000,-1,5,-15
sol,295,755.000000,1,-10,5
sol,296,997.000000,-1,0,-15
sol,297,861.000000,-1,5,-15
sol,298,1455.000000,1,0,5
sol,299,1835.000000,1,-10,10
sol,300,995.000000,-1,5,-5
sol,301,1331.000000,-1,15,-10
sol,302,1012.000000,1,15,5
sol,303,965.000000,1,-10,0
sol,304,893.000000,-1,5,15
sol,305,1162.000000,-1,-5,-15
sol,306,1079.000000,-1,-5,15
sol,307,1511.000000,-1,-10,-15
sol,308,1215.000000,-1,5,15
sol,309,859.000000,1,-15,0
sol,310,761.000000,1,-15,10
sol,311,1025.000000,-1,10,15
sol,312,911.000000,1,-10,0
sol,313,1145.000000,1,0,5
sol,314,1015.000000,1,-5,10
sol,315,1009.000000,-1,5,15
sol,316,1125.000000,1,-15,-10
sol,317,1205.000000,1,15,5
sol,318,2297.000000,1,10,5
sol,319,1504.000000,-1,0,5
sol,320,1263.000000,-1,0,10
sol,321,2181.000000,1,0,-5
sol,322,979.000000,1,10,-5
sol,323,1715.000000,-1,-10,-15
sol,324,1072.000000,1,10,0
sol,325,1077.000000,-1,0,15
sol,326,1267.000000,-1,0,5
sol,327,871.000000,1,-15,-5
sol,328,1105.000000,-1,0,-15
sol,329,953.000000,1,10,5
sol,330,755.000000,1,-10,0
sol,331,1387.000000,1,-15,10
sol,332,1283.000000,1,-15,0
sol,333,927.000000,-1,10,15
sol,334,1069.000000,-1,0,-15
sol,335,2155.000000,-1,-5,0
sol,336,1345.000000,-1,15,-15
sol,337,1131.000000,-1,-10,15
sol,338,1757.000000,-1,-5,5
sol,339,779.000000,1,15,10
sol,340,793.000000,1,-15,-5
sol,341,1063.000000,1,-15,5
sol,342,1139.000000,-1,5,10
sol,343,1959.000000,1,-5,0
sol,344,1351.000000,-1,-5,-10
sol,345,919.000000,1,-10,-5
sol,346,877.000000,1,-15,-5
sol,347,1269.000000,-1,0,10
sol,348,1225.000000,-1,-5,-10
sol,349,883.000000,-1,5,-5
sol,350,1441.000000,1,-10,0
sol,351,2625.000000,-1,10,-10
sol,352,1067.000000,-1,5,-15
sol,353,1261.000000,1,10,-5
sol,354,967.000000,1,15,5
sol,355,1629.000000,1,15,10
sol,356,1537.000000,-1,-5,-10
sol,357,1249.000000,-1,5,15
sol,358,899.000000,1,-15,-10
sol,359,886.000000,1,-10,-5
sol,360,733.000000,1,-15,15
sol,361,1001.000000,-1,5,10
sol,362,1329.000000,-1,5,-5
sol,363,1063.000000,1,-10,15
sol,364,1177.000000,-1,10,-5
sol,365,1133.000000,1,-5,0
sol,366,1181.000000,-1,0,15
sol,367,1383.000000,-1,15,-10
sol,368,661.000000,-1,10,-10
sol,369,593.000000,-1,5,-10
sol,370,687.000000,-1,0,15
sol,371,893.000000,-1,15,-15
sol,372,1139.000000,1,15,5
sol,373,744.000000,1,15,-5
sol,374,925.000000,1,-15,15
sol,375,981.000000,1,-15,5
sol,376,1503.000000,-1,10,15
sol,377,983.000000,1,10,-5
sol,378,2441.000000,-1,-10,10
sol,379,1029.000000,1,5,-5
sol,380,2165.000000,-1,-10,-15
sol,381,1065.000000,1,10,5
sol,382,1153.000000,-1,5,10
sol,383,2471.000000,-1,15,-10
sol,384,1343.000000,-1,5,15
sol,385,1001.000000,-1,-5,15
sol,386,969.000000,-1,5,-15
sol,387,4281.000000,-1,-10,15
sol,388,1339.000000,1,-5,0
sol,389,1809.000000,-1,-5,10
sol,390,1985.000000,1,0,5
sol,391,1331.000000,1,-10,-5
sol,392,849.000000,1,15,0
sol,393,1739.000000,-1,10,-15
sol,394,1899.000000,1,0,5
sol,395,1081.000000,-1,0,-10
sol,396,729.000000,1,-15,0
sol,397,1103.000000,1,15,0
sol,398,1061.000000,-1,10,-10
sol,399,1229.000000,-1,-5,10
sol,400,1013.000000,1,-15,5
sol,401,1601.000000,1,-15,15
sol,402,985.000000,-1,5,15
sol,403,1001.000000,1,-15,-10
sol,404,1511.000000,-1,5,10
sol,405,1797.000000,-1,15,-10
sol,406,2367.000000,-1,5,0
sol,407,1497.000000,1,-5,5
sol,408,1363.000000,1,15,5
sol,409,983.000000,1,-15,5
sol,410,1091.000000,-1,0,-5
sol,411,1411.000000,1,-15,10
sol,412,1111.000000,1,-15,-10
sol,413,981.000000,-1,5,10
sol,414,1008.000000,-1,5,-15
sol,415,2857.000000,1,-10,5
sol,416,697.000000,-1,0,-15
sol,417,593.000000,-1,5,-15
sol,418,1745.000000,-1,0,5
sol,419,2471.000000,1,-10,10
sol,420,1043.000000,1,5,-5
sol,421,1691.000000,1,15,-10
sol,422,681.000000,1,15,5
sol,423,771.000000,1,-10,0
sol,424,1387.000000,-1,5,15
sol,425,953.000000,-1,-5,-15
sol,426,881.000000,-1,-5,15
sol,427,3462.000000,-1,-10,-15
sol,428,759.000000,-1,5,15
sol,429,781.000000,1,-15,0
sol,430,2139.000000,-1,-15,10
sol,431,1061.000000,-1,10,15
sol,432,1439.000000,1,-10,0
sol,433,821.000000,-1,0,5
sol,434,1467.000000,-1,-5,10
sol,435,1137.000000,-1,5,15
sol,436,913.000000,1,-15,-10
sol,437,793.000000,1,15,5
sol,438,2001.000000,-1,10,5
sol,439,1899.000000,-1,0,5
sol,440,755.000000,-1,0,10
sol,441,4301.000000,-1,0,-5
sol,442,1007.000000,1,10,-5
sol,443,1255.000000,1,-10,-15
sol,444,777.000000,1,10,0
sol,445,1079.000000,-1,0,15
sol,446,1353.000000,-1,0,5
sol,447,793.000000,1,-15,-5
sol,448,1091.000000,-1,0,-15
sol,449,2535.000000,-1,10,5
sol,450,3899.000000,1,-10,0
sol,451,3053.000000,1,-15,10
sol,452,5861.000000,1,-15,0
sol,453,1153.000000,-1,10,15
sol,454,981.000000,-1,0,-15
sol,455,1343.000000,-1,-5,0
sol,456,2957.000000,-1,15,-15
sol,457,1435.000000,-1,-10,15
sol,458,1127.000000,-1,-5,5
sol,459,777.000000,1,15,10
sol,460,756.000000,1,-15,-5
sol,461,757.000000,1,-15,5
sol,462,1463.000000,-1,5,10
sol,463,2705.000000,1,-5,0
sol,464,2387.000000,-1,-5,-10
sol,465,985.000000,1,-10,-5
sol,466,625.000000,1,-15,-5
sol,467,1677.000000,-1,0,10
sol,468,1223.000000,-1,-5,-10
sol,469,941.000000,-1,5,-5
sol,470,2577.000000,1,-10,0
sol,471,1034.000000,1,10,-10
sol,472,1065.000000,-1,5,-15
sol,473,1593.000000,1,10,-5
sol,474,885.000000,1,15,5
sol,475,1139.000000,1,15,10
sol,476,2781.000000,1,-5,-10
sol,477,907.000000,-1,5,15
sol,478,1164.000000,1,-15,-10
sol,479,1015.000000,1,-10,-5
lua,0,2493.000000,-1,10,-10
lua,1,6154.000000,-1,15,-5
lua,2,1091.000000,-1,-5,15
lua,3,4988.000000,-1,-10,15
lua,4,3660.000000,1,-10,10
lua,5,4990.000000,-1,10,0
lua,6,6982.000000,1,10,5
lua,7,6292.000000,-1,-5,0
lua,8,1690.000000,-1,0,-10
lua,9,1446.000000,-1,0,-10
lua,10,8271.000000,-1,15,-5
lua,11,952.000000,1,-10,0
lua,12,2539.000000,1,-10,-5
lua,13,3474.000000,-1,-10,-15
lua,14,1281.000000,1,-5,10
lua,15,3564.000000,-1,0,10
lua,16,1938.000000,1,-5,5
lua,17,1890.000000,-1,10,-15
lua,18,1248.000000,1,15,10
lua,19,1366.000000,1,-10,10
lua,20,3555.000000,1,15,-15
lua,21,3869.000000,-1,0,5
lua,22,4300.000000,1,-5,0
lua,23,4750.000000,1,-15,-10
lua,24,4722.000000,1,-10,10
lua,25,12482.000000,-1,15,-15
lua,26,1634.000000,-1,0,-10
lua,27,1731.000000,-1,0,-15
lua,28,1322.000000,1,-5,5
lua,29,2645.000000,-1,-5,15
lua,30,1834.000000,-1,-10,10
lua,31,3774.000000,1,5,-15
lua,32,1342.000000,1,5,-5
lua,33,2178.000000,-1,-15,15
lua,34,2124.000000,-1,-5,10
lua,35,2226.000000,1,15,-15
lua,36,3762.000000,-1,5,15
lua,37,6528.000000,1,-15,-10
lua,38,1639.000000,1,10,-5
lua,39,1460.000000,1,0,-5
lua,40,2706.000000,-1,5,0
lua,41,3712.000000,1,-15,10
lua,42,3744.000000,-1,-5,-15
lua,43,7480.000000,1,10,-5
lua,44,5130.000000,1,10,-5
lua,45,2013.000000,-1,-10,15
lua,46,1586.000000,-1,-5,-15
lua,47,3516.000000,-1,5,-15
lua,48,2764.000000,1,15,-10
lua,49,4592.000000,-1,10,-10
lua,50,4724.000000,-1,-10,15
lua,51,11734.000000,-1,10,-15
lua,52,1660.000000,1,-5,0
lua,53,7990.000000,-1,10,-15
lua,54,2032.000000,1,15,-15
lua,55,2448.000000,-1,-10,10
lua,56,5632.000000,1,-10,5
lua,57,3088.000000,-1,5,15
lua,58,1728.000000,1,-15,0
lua,59,2588.000000,1,-15,0
lua,60,2446.000000,-1,15,-10
lua,61,3274.000000,1,0,10
lua,62,1830.000000,-1,5,-10
lua,63,2592.000000,1,5,10
lua,64,1734.000000,1,-10,-5
lua,65,6792.000000,-1,0,15
lua,66,4146.000000,-1,0,-5
lua,67,2878.000000,-1,10,-10
lua,68,6304.000000,1,-15,-10
lua,69,4486.000000,-1,10,-15
lua,70,1988.000000,1,5,-5
lua,71,7578.000000,1,-5,-10
lua,72,5240.000000,1,-5,0
lua,73,2464.000000,-1,0,-15
lua,74,3690.000000,-1,-10,-15
lua,75,4194.000000,-1,-10,15
lua,76,3874.000000,-1,0,-5
lua,77,3670.000000,1,5,-5
lua,78,1844.000000,-1,-5,10
lua,79,4536.000000,-1,10,-15
lua,80,5232.000000,-1,10,15
lua,81,1930.000000,-1,10,-15
lua,82,8412.000000,-1,-5,-10
lua,83,5308.000000,1,-10,-15
lua,84,3596.000000,-1,10,5
lua,85,1940.000000,-1,-5,5
lua,86,1114.000000,1,-15,-10
lua,87,1442.000000,1,10,-5
lua,88,2942.000000,1,-15,10
lua,89,3224.000000,-1,0,10
lua,90,1916.000000,1,-5,0
lua,91,1226.000000,1,-15,5
lua,92,2214.000000,-1,15,-15
lua,93,2792.000000,1,-15,5
lua,94,5800.000000,1,-15,-5
lua,95,2070.000000,1,-15,15
lua,96,2098.000000,-1,-5,-10
lua,97,2438.000000,-1,5,-15
lua,98,2768.000000,1,-15,-10
lua,99,2316.000000,-1,-5,-10
lua,100,2718.000000,-1,0,-10
lua,101,4096.000000,1,15,0
lua,102,1820.000000,1,-10,0
lua,103,1148.000000,1,-10,0
lua,104,6738.000000,1,-15,-10
lua,105,1280.000000,1,5,-5
lua,106,1492.000000,-1,0,5
lua,107,1726.000000,-1,-5,15
lua,108,1608.000000,1,10,0
lua,109,7776.000000,-1,15,10
lua,110,2154.000000,1,-15,15
lua,111,1314.000000,1,10,-5
lua,112,1408.000000,1,15,0
lua,113,3404.000000,1,15,10
lua,114,2022.000000,-1,-15,10
lua,115,1296.000000,1,5,0
lua,116,7924.000000,1,-10,10
lua,117,4130.000000,-1,10,-10
lua,118,1076.000000,-1,-5,15
lua,119,1236.000000,1,-15,-10
lua,120,1130.000000,1,-10,10
lua,121,1358.000000,-1,5,-10
lua,122,2358.000000,1,-10,10
lua,123,4620.000000,1,-5,5
lua,124,1626.000000,1,15,0
lua,125,1701.000000,1,-5,0
lua,126,1373.000000,-1,5,-15
lua,127,3164.000000,-1,15,10
lua,128,3643.000000,-1,15,-5
lua,129,983.000000,-1,0,-15
lua,130,2109.000000,1,15,-15
lua,131,878.000000,-1,0,10
lua,132,1096.000000,1,-10,0
lua,133,1238.000000,1,15,5
lua,134,3349.000000,1,5,-5
lua,135,2236.000000,-1,-5,-10
lua,136,5537.000000,1,5,-5
lua,137,2042.000000,-1,10,-15
lua,138,1751.000000,1,10,-5
lua,139,1221.000000,-1,0,-15
lua,140,1566.000000,1,-15,-10
lua,141,1116.000000,1,-15,10
lua,142,1892.000000,1,-10,10
lua,143,1575.000000,1,-10,10
lua,144,3572.000000,1,-10,-5
lua,145,1917.000000,-1,0,-10
lua,146,2940.000000,-1,0,15
lua,147,1337.000000,1,-5,0
lua,148,1457.000000,1,15,5
lua,149,1486.000000,-1,15,-5
lua,150,5279.000000,1,15,10
lua,151,3474.000000,-1,0,-15
lua,152,1634.000000,-1,10,-15
lua,153,1652.000000,-1,-5,15
lua,154,1860.000000,-1,0,15
lua,155,1498.000000,-1,0,-5
lua,156,5266.000000,-1,-10,10
lua,157,3360.000000,-1,-10,5
lua,158,1304.000000,1,15,-15
lua,159,1369.000000,1,5,-15
lua,160,1870.000000,-1,10,-5
lua,161,1735.000000,1,0,15
lua,162,1284.000000,1,-10,0
lua,163,1538.000000,-1,10,-15
lua,164,1719.000000,-1,5,-10
lua,165,1300.000000,-1,5,-15
lua,166,1887.000000,1,0,5
lua,167,1698.000000,-1,15,-10
lua,168,1582.000000,1,-5,15
lua,169,1362.000000,1,-15,10
lua,170,1774.000000,1,15,5
lua,171,1044.000000,-1,-5,15
lua,172,741.000000,-1,0,10
lua,173,848.000000,-1,-5,5
lua,174,1226.000000,-1,-5,10
lua,175,1154.000000,-1,5,-15
lua,176,4310.000000,1,-5,0
lua,177,1476.000000,1,10,-15
lua,178,1341.000000,1,-15,0
lua,179,1374.000000,1,15,0
lua,180,888.000000,1,10,-5
lua,181,1521.000000,-1,-5,-15
lua,182,1303.000000,-1,5,15
lua,183,1492.000000,-1,15,-15
lua,184,3142.000000,1,-10,10
lua,185,1030.000000,1,-15,-10
lua,186,1071.000000,1,0,-10
lua,187,992.000000,-1,5,15
lua,188,728.000000,-1,0,15
lua,189,754.000000,1,-15,0
lua,190,6118.000000,1,5,0
lua,191,1030.000000,-1,5,-15
lua,192,2430.000000,-1,0,5
lua,193,852.000000,1,-15,10
lua,194,1068.000000,-1,0,-10
lua,195,2254.000000,1,-15,-10
lua,196,932.000000,-1,0,-15
lua,197,2457.000000,1,-5,5
lua,198,2322.000000,1,10,5
lua,199,3302.000000,1,5,10
lua,200,1520.000000,-1,-15,5
lua,201,1006.000000,-1,0,10
lua,202,1384.000000,-1,-5,-10
lua,203,1194.000000,1,10,-5
lua,204,1219.000000,1,15,-10
lua,205,2004.000000,-1,5,0
lua,206,1250.000000,-1,-10,15
lua,207,1052.000000,1,10,5
lua,208,814.000000,1,15,-10
lua,209,771.000000,1,15,-10
lua,210,1204.000000,1,-15,0
lua,211,1140.000000,-1,0,15
lua,212,962.000000,1,10,-10
lua,213,1040.000000,-1,0,15
lua,214,6180.000000,-1,15,10
lua,215,1080.000000,1,-10,5
lua,216,1138.000000,1,-5,5
lua,217,2222.000000,1,10,0
lua,218,1454.000000,1,-5,10
lua,219,968.000000,-1,5,10
lua,220,1574.000000,1,5,-10
lua,221,1014.000000,1,-10,5
lua,222,934.000000,1,15,10
lua,223,1870.000000,-1,-5,15
lua,224,1758.000000,-1,10,-5
lua,225,1884.000000,1,-5,10
lua,226,778.000000,-1,-10,15
lua,227,1410.000000,-1,-15,5
lua,228,1176.000000,1,5,-5
lua,229,1642.000000,1,-5,-15
lua,230,720.000000,-1,-10,0
lua,231,3110.000000,1,0,-5
lua,232,790.000000,-1,-15,10
lua,233,5982.000000,-1,-10,-5
lua,234,1332.000000,-1,15,10
lua,235,1874.000000,-1,-15,15
lua,236,1126.000000,-1,5,10
lua,237,1200.000000,1,5,-5
lua,238,1714.000000,-1,-10,15
lua,239,2548.000000,1,10,-5
lua,240,1368.000000,1,-5,0
lua,241,1446.000000,-1,0,15
lua,242,932.000000,1,15,-10
lua,243,2455.000000,-1,10,-10
lua,244,1502.000000,-1,5,-10
lua,245,814.000000,-1,0,15
lua,246,824.000000,1,15,-15
lua,247,1121.000000,1,15,5
lua,248,897.000000,1,15,-5
lua,249,1126.000000,-1,-15,15
lua,250,1628.000000,-1,-15,5
lua,251,1382.000000,-1,10,15
lua,252,1410.000000,1,10,-5
lua,253,1313.000000,-1,-10,10
lua,254,1667.000000,1,5,-5
lua,255,3316.000000,1,10,5
lua,256,1041.000000,-1,5,10
lua,257,1218.000000,1,15,-10
lua,258,880.000000,-1,5,15
lua,259,1070.000000,-1,-5,15
lua,260,1728.000000,1,5,-15
lua,261,838.000000,-1,-10,15
lua,262,1500.000000,1,-5,0
lua,263,1352.000000,-1,-5,10
lua,264,1674.000000,-1,0,5
lua,265,1680.000000,1,-10,-5
lua,266,1968.000000,1,15,0
lua,267,1195.000000,1,10,-15
lua,268,1266.000000,-1,0,5
lua,269,1008.000000,-1,0,-10
lua,270,1912.000000,1,-15,0
lua,271,886.000000,1,15,0
lua,272,2786.000000,1,10,-10
lua,273,1474.000000,-1,-5,10
lua,274,796.000000,1,-15,5
lua,275,2956.000000,-1,-15,15
lua,276,2644.000000,-1,5,15
lua,277,1077.000000,1,-15,-10
lua,278,1780.000000,-1,5,10
lua,279,1360.000000,1,15,-10
lua,280,1826.000000,1,5,0
lua,281,1454.000000,-1,-5,5
lua,282,2200.000000,1,15,5
lua,283,7480.000000,1,-15,5
lua,284,1826.000000,-1,0,-5
lua,285,1546.000000,1,-15,10
lua,286,1386.000000,-1,5,10
lua,287,1344.000000,-1,5,-15
lua,288,1340.000000,1,-10,5
lua,289,1102.000000,-1,0,-15
lua,290,778.000000,-1,5,-15
lua,291,812.000000,1,0,5
lua,292,730.000000,1,-10,10
lua,293,2456.000000,-1,5,-5
lua,294,1472.000000,-1,15,-10
lua,295,1094.000000,1,15,5
lua,296,1194.000000,1,-10,0
lua,297,2164.000000,-1,5,15
lua,298,1414.000000,-1,-5,15
lua,299,2178.000000,1,-10,-15
lua,300,946.000000,-1,5,15
lua,301,1038.000000,1,-15,0
lua,302,3534.000000,1,-15,10
lua,303,3136.000000,-1,10,15
lua,304,1298.000000,1,-10,0
lua,305,994.000000,-1,0,5
lua,306,2614.000000,-1,-5,10
lua,307,1884.000000,-1,5,15
lua,308,3988.000000,1,-15,-10
lua,309,3552.000000,1,15,5
lua,310,1226.000000,1,10,5
lua,311,1262.000000,-1,0,5
lua,312,1274.000000,-1,0,10
lua,313,1176.000000,1,0,-5
lua,314,1368.000000,1,10,-5
lua,315,5350.000000,-1,-10,-15
lua,316,996.000000,1,10,0
lua,317,1410.000000,-1,0,15
lua,318,1766.000000,-1,0,5
lua,319,982.000000,1,-15,-5
lua,320,1904.000000,-1,0,-15
lua,321,2080.000000,-1,10,5
lua,322,954.000000,1,-10,0
lua,323,1408.000000,1,-15,10
lua,324,912.000000,1,-15,0
lua,325,1046.000000,-1,10,15
lua,326,972.000000,-1,0,-15
lua,327,1494.000000,1,-5,0
lua,328,3744.000000,-1,15,-15
lua,329,1184.000000,-1,-10,15
lua,330,1630.000000,1,-5,5
lua,331,1596.000000,1,15,10
lua,332,1532.000000,1,-15,-5
lua,333,4706.000000,1,-15,5
lua,334,4342.000000,-1,5,10
lua,335,1378.000000,1,-5,0
lua,336,1382.000000,-1,-5,-10
lua,337,1510.000000,1,-10,-5
lua,338,1906.000000,1,-15,-5
lua,339,1082.000000,-1,0,10
lua,340,1580.000000,-1,-5,-10
lua,341,948.000000,-1,5,-5
lua,342,924.000000,1,-10,0
lua,343,814.000000,1,10,-10
lua,344,2020.000000,1,5,-15
lua,345,958.000000,1,10,-5
lua,346,1714.000000,1,15,5
lua,347,1760.000000,1,15,10
lua,348,890.000000,-1,-5,-10
lua,349,752.000000,-1,5,15
lua,350,1416.000000,1,-15,-10
lua,351,1770.000000,1,-10,-5
lua,352,1256.000000,-1,0,-15
lua,353,4140.000000,-1,-10,5
lua,354,790.000000,1,5,-5
lua,355,820.000000,1,-15,0
lua,356,1652.000000,1,5,-10
lua,357,1002.000000,-1,-10,10
lua,358,812.000000,-1,0,-5
lua,359,1448.000000,1,-5,0
lua,360,3796.000000,1,-15,-5
lua,361,1412.000000,-1,-10,10
lua,362,964.000000,-1,5,15
lua,363,1266.000000,1,15,10
lua,364,874.000000,-1,5,10
lua,365,1290.000000,1,5,0
lua,366,1596.000000,-1,0,5
lua,367,1188.000000,-1,-5,10
lua,368,1616.000000,-1,0,5
lua,369,1572.000000,-1,10,15
lua,370,950.000000,1,-15,0
lua,371,1108.000000,1,-15,10
lua,372,1564.000000,1,-10,15
lua,373,1760.000000,-1,0,10
lua,374,10802.000000,1,0,5
lua,375,2524.000000,-1,-5,10
lua,376,3834.000000,1,10,-10
lua,377,894.000000,1,-10,5
lua,378,2072.000000,-1,10,-15
lua,379,1494.000000,1,10,5
lua,380,2460.000000,1,-15,0
lua,381,782.000000,1,-10,10
lua,382,1074.000000,1,-5,15
lua,383,674.000000,1,-15,0
lua,384,1322.000000,-1,5,-15
lua,385,1484.000000,-1,15,-5
lua,386,3080.000000,-1,0,15
lua,387,5610.000000,1,10,-5
lua,388,1050.000000,1,-15,10
lua,389,1088.000000,-1,-15,5
lua,390,1326.000000,1,10,-15
lua,391,1008.000000,1,15,10
lua,392,924.000000,-1,10,-10
lua,393,1008.000000,-1,5,-5
lua,394,1370.000000,-1,10,-5
lua,395,870.000000,-1,5,-5
lua,396,4214.000000,1,-15,-10
lua,397,1060.000000,-1,0,15
lua,398,802.000000,1,-10,0
lua,399,1148.000000,1,10,0
lua,400,1210.000000,-1,0,-15
lua,401,1290.000000,1,-10,0
lua,402,3352.000000,1,-15,5
lua,403,902.000000,1,10,-5
lua,404,1250.000000,1,10,0
lua,405,2410.000000,1,10,5
lua,406,958.000000,1,-15,-5
lua,407,1094.000000,1,15,-5
lua,408,1122.000000,-1,0,10
lua,409,2666.000000,-1,15,-15
lua,410,5990.000000,-1,5,10
lua,411,1230.000000,1,-15,-10
lua,412,1642.000000,1,-10,5
lua,413,4276.000000,1,15,-10
lua,414,1582.000000,1,-5,0
lua,415,1478.000000,1,-10,0
lua,416,1196.000000,1,10,0
lua,417,4354.000000,-1,-5,-15
lua,418,1542.000000,1,5,0
lua,419,1458.000000,1,-15,5
lua,420,1568.000000,-1,-5,10
lua,421,1978.000000,1,5,-10
lua,422,1452.000000,1,10,-15
lua,423,1370.000000,1,-15,0
lua,424,3486.000000,1,-10,15
lua,425,944.000000,-1,-5,15
lua,426,1546.000000,-1,15,5
lua,427,1856.000000,1,10,-5
lua,428,970.000000,-1,0,10
lua,429,1408.000000,1,-15,15
lua,430,1304.000000,-1,0,10
lua,431,4158.000000,-1,-5,0
lua,432,706.000000,1,15,-10
lua,433,1984.000000,1,-15,-10
lua,434,3826.000000,1,0,-10
lua,435,1036.000000,1,5,-5
lua,436,1150.000000,1,10,-10
lua,437,1388.000000,1,15,-15
lua,438,1486.000000,-1,0,-15
lua,439,1388.000000,-1,10,15
lua,440,1974.000000,1,-5,5
lua,441,768.000000,1,-10,5
lua,442,1618.000000,1,15,10
lua,443,1090.000000,-1,10,0
lua,444,1480.000000,1,-5,10
lua,445,1516.000000,-1,0,-15
lua,446,1110.000000,-1,0,-5
lua,447,4786.000000,-1,-10,-15
lua,448,1574.000000,-1,0,5
lua,449,922.000000,-1,5,-15
lua,450,1138.000000,1,10,5
lua,451,1434.000000,-1,5,0
lua,452,3146.000000,-1,15,-5
lua,453,2968.000000,-1,-15,15
lua,454,2280.000000,1,10,0
lua,455,1298.000000,1,10,5
lua,456,1714.000000,1,-15,10
lua,457,956.000000,-1,5,-15
lua,458,786.000000,-1,5,10
lua,459,1048.000000,-1,0,-10
lua,460,682.000000,-1,0,15
lua,461,920.000000,-1,-5,-15
lua,462,1382.000000,1,15,0
lua,463,3374.000000,-1,-5,-10
lua,464,1286.000000,1,10,-5
lua,465,2870.000000,-1,-5,-10
lua,466,2308.000000,-1,-10,-15
lua,467,3062.000000,-1,5,10
rio,0,4748.000000,1,-15,15
rio,1,1544.000000,-1,5,10
rio,2,1686.000000,-1,5,-5
rio,3,3510.000000,-1,-10,15
rio,4,4602.000000,1,10,-5
rio,5,1254.000000,1,-5,0
rio,6,904.000000,-1,0,15
rio,7,1750.000000,-1,15,-10
rio,8,666.000000,-1,10,-10
rio,9,970.000000,-1,5,-10
rio,10,2222.000000,-1,0,15
rio,11,3960.000000,1,15,-15
rio,12,3394.000000,1,15,5
rio,13,1038.000000,1,15,-5
rio,14,2068.000000,-1,-15,15
rio,15,6252.000000,1,-15,5
rio,16,1430.000000,-1,10,15
rio,17,2368.000000,1,10,-5
rio,18,2796.000000,-1,-10,10
rio,19,1458.000000,1,5,-5
rio,20,4156.000000,1,-10,-15
rio,21,7486.000000,1,10,5
rio,22,3506.000000,-1,5,10
rio,23,3572.000000,1,15,-10
rio,24,2596.000000,-1,5,15
rio,25,2696.000000,-1,-5,15
rio,26,6316.000000,-1,5,-15
rio,27,2068.000000,-1,-10,15
rio,28,2906.000000,1,-5,0
rio,29,1296.000000,-1,-5,10
rio,30,1344.000000,-1,0,5
rio,31,1030.000000,1,-10,-5
rio,32,1146.000000,1,15,0
rio,33,5206.000000,1,10,-15
rio,34,1494.000000,-1,0,5
rio,35,1106.000000,-1,0,-10
rio,36,966.000000,1,-15,0
rio,37,702.000000,1,15,0
rio,38,1480.000000,1,10,-10
rio,39,1156.000000,-1,-5,10
rio,40,1884.000000,1,-15,5
rio,41,4150.000000,-1,-15,15
rio,42,1202.000000,-1,5,15
rio,43,1124.000000,1,-15,-10
rio,44,1906.000000,-1,5,10
rio,45,1342.000000,1,15,-10
rio,46,1188.000000,1,5,0
rio,47,1577.000000,-1,-5,5
rio,48,1104.000000,1,15,5
rio,49,3190.000000,1,-15,5
rio,50,1354.000000,-1,0,-5
rio,51,1228.000000,1,-15,10
rio,52,1520.000000,1,-15,-10
rio,53,1276.000000,-1,5,10
rio,54,1146.000000,-1,5,-15
rio,55,1668.000000,1,-10,5
rio,56,1010.000000,-1,0,-15
rio,57,1166.000000,-1,5,-15
rio,58,3964.000000,-1,0,5
rio,59,854.000000,1,-10,10
rio,60,4164.000000,1,5,-5
rio,61,3466.000000,1,15,-10
rio,62,742.000000,1,15,5
rio,63,1044.000000,1,-10,0
rio,64,784.000000,-1,5,15
rio,65,1382.000000,-1,-5,-15
rio,66,1694.000000,-1,-5,15
rio,67,3478.000000,-1,-10,-15
rio,68,990.000000,-1,5,15
rio,69,826.000000,1,-15,0
rio,70,2596.000000,1,-15,10
rio,71,2134.000000,-1,10,15
rio,72,898.000000,1,-10,0
rio,73,1538.000000,-1,0,5
rio,74,2966.000000,1,-5,10
rio,75,1512.000000,-1,5,15
rio,76,3028.000000,1,-15,-10
rio,77,1782.000000,1,15,5
rio,78,1454.000000,1,10,5
rio,79,1376.000000,-1,0,5
rio,80,1084.000000,-1,0,10
rio,81,2410.000000,-1,0,-5
rio,82,1074.000000,1,10,-5
rio,83,866.000000,-1,-10,-15
rio,84,946.000000,1,10,0
rio,85,1114.000000,-1,0,15
rio,86,1176.000000,-1,0,5
rio,87,780.000000,1,-15,-5
rio,88,1046.000000,-1,0,-15
rio,89,2598.000000,1,10,5
rio,90,894.000000,1,-10,0
rio,91,1690.000000,1,-15,10
rio,92,618.000000,1,-15,0
rio,93,852.000000,-1,10,15
rio,94,728.000000,-1,0,-15
rio,95,990.000000,1,-5,0
rio,96,3180.000000,-1,15,-15
rio,97,1234.000000,-1,-10,15
rio,98,2364.000000,-1,-5,5
rio,99,864.000000,1,15,10
rio,100,878.000000,1,-15,-5
rio,101,1954.000000,1,-15,5
rio,102,1908.000000,-1,5,10
rio,103,1198.000000,1,-5,0
rio,104,4520.000000,-1,-5,-10
rio,105,1056.000000,1,-10,-5
rio,106,1314.000000,1,-15,-5
rio,107,1038.000000,-1,0,10
rio,108,2824.000000,-1,-5,-10
rio,109,2403.000000,1,5,-5
rio,110,1758.000000,1,-10,0
rio,111,1658.000000,1,10,-10
rio,112,2198.000000,-1,5,-15
rio,113,1168.000000,1,10,-5
rio,114,904.000000,1,15,5
rio,115,1354.000000,1,15,10
rio,116,1910.000000,-1,-5,-10
rio,117,1198.000000,-1,5,15
rio,118,848.000000,1,-15,-10
rio,119,1054.000000,1,-10,-5
rio,120,974.000000,1,15,0
rio,121,961.000000,1,-10,5
rio,122,625.000000,1,-10,0
rio,123,1152.000000,1,-10,-5
rio,124,1024.000000,-1,-5,15
rio,125,926.000000,-1,0,15
rio,126,2019.000000,-1,-5,10
rio,127,1424.000000,-1,10,-10
rio,128,2062.000000,-1,-10,15
rio,129,2468.000000,-1,5,10
rio,130,1476.000000,1,5,0
rio,131,3464.000000,1,-5,0
rio,132,1052.000000,-1,-5,5
rio,133,2511.000000,-1,0,-10
rio,134,1012.000000,1,-10,-5
rio,135,1162.000000,-1,-5,-15
rio,136,2514.000000,-1,0,5
rio,137,719.000000,1,-15,-10
rio,138,5688.000000,1,15,10
rio,139,946.000000,-1,-5,15
rio,140,3915.000000,-1,15,-15
rio,141,2834.000000,1,10,-10
rio,142,2982.000000,1,-5,0
rio,143,890.000000,1,-10,-5
rio,144,1619.000000,-1,10,15
rio,145,4060.000000,-1,-5,10
rio,146,808.000000,1,-15,-5
rio,147,894.000000,1,10,0
rio,148,1722.000000,1,-15,15
rio,149,1116.000000,-1,0,15
rio,150,2576.000000,-1,10,-5
rio,151,884.000000,1,15,0
rio,152,1086.000000,-1,0,-15
rio,153,1720.000000,-1,-5,-15
rio,154,4228.000000,1,-10,15
rio,155,1166.000000,1,10,5
rio,156,1362.000000,-1,10,15
rio,157,1072.000000,1,-5,5
rio,158,1500.000000,-1,0,-5
rio,159,1510.000000,-1,0,-5
rio,160,2602.000000,-1,-10,-15
rio,161,944.000000,1,10,0
rio,162,1620.000000,1,15,5
rio,163,1158.000000,1,-15,-10
rio,164,2802.000000,-1,-15,15
rio,165,826.000000,1,5,10
rio,166,2950.000000,-1,-10,15
rio,167,2210.000000,1,10,-5
rio,168,1218.000000,-1,0,-15
rio,169,844.000000,1,-15,-5
rio,170,2398.000000,1,15,-5
rio,171,1112.000000,-1,0,15
rio,172,5202.000000,1,5,-5
rio,173,1164.000000,-1,5,15
rio,174,864.000000,1,-10,0
rio,175,686.000000,-1,5,-15
rio,176,1638.000000,-1,0,5
rio,177,2126.000000,1,10,-5
rio,178,1418.000000,1,-15,-5
rio,179,1018.000000,-1,10,-10
rio,180,808.000000,-1,0,10
rio,181,784.000000,1,-10,-5
rio,182,878.000000,1,-15,-5
rio,183,786.000000,1,15,0
rio,184,902.000000,1,15,-10
rio,185,652.000000,-1,0,15
rio,186,1090.000000,-1,0,-10
rio,187,4060.000000,1,5,-5
rio,188,730.000000,-1,0,-15
rio,189,754.000000,1,10,5
rio,190,1574.000000,1,-10,15
rio,191,1846.000000,-1,5,-10
rio,192,1124.000000,1,5,0
rio,193,2560.000000,-1,-10,-15
rio,194,626.000000,-1,-5,15
rio,195,2450.000000,1,15,-10
rio,196,1392.000000,-1,10,-15
rio,197,870.000000,1,-15,-5
rio,198,694.000000,1,10,0
rio,199,1406.000000,-1,0,5
rio,200,1236.000000,-1,-5,-15
rio,201,838.000000,1,10,-10
rio,202,1300.000000,-1,-5,5
rio,203,3008.000000,1,10,-10
rio,204,1548.000000,-1,-15,15
rio,205,2972.000000,1,15,-10
rio,206,1416.000000,-1,0,-15
rio,207,1568.000000,-1,-10,10
rio,208,780.000000,1,15,0
rio,209,2314.000000,1,-15,5
rio,210,1342.000000,-1,-15,15
rio,211,1004.000000,1,-10,0
rio,212,850.000000,1,10,0
rio,213,904.000000,-1,10,15
rio,214,1026.000000,-1,-5,-15
rio,215,2056.000000,-1,10,-15
rio,216,732.000000,-1,5,-10
rio,217,1136.000000,1,-15,-10
rio,218,1042.000000,1,15,-5
rio,219,4150.000000,1,10,-5
rio,220,3056.000000,-1,-5,5
rio,221,2172.000000,1,-15,10
rio,222,1752.000000,1,15,-10
rio,223,3530.000000,1,-15,10
rio,224,3234.000000,-1,-10,-15
rio,225,1034.000000,1,10,0
rio,226,1434.000000,-1,5,-10
rio,227,2038.000000,-1,-10,10
rio,228,3118.000000,1,-5,0
rio,229,2470.000000,-1,-5,-10
rio,230,1210.000000,-1,5,15
rio,231,5550.000000,-1,0,-5
rio,232,3750.000000,1,15,-15
rio,233,1144.000000,1,-10,5
rio,234,938.000000,1,-10,0
rio,235,958.000000,1,-15,-5
rio,236,2570.000000,-1,5,10
rio,237,796.000000,-1,0,10
rio,238,2186.000000,1,15,-5
rio,239,2382.000000,1,10,5
rio,240,7493.000000,-1,-15,15
rio,241,2381.000000,-1,5,10
rio,242,4929.000000,1,5,-5
rio,243,2061.000000,-1,-10,15
rio,244,3287.000000,1,10,-5
rio,245,1055.000000,1,-5,0
rio,246,685.000000,-1,0,15
rio,247,4225.000000,1,15,-10
rio,248,1941.000000,-1,10,-10
rio,249,1229.000000,-1,5,-10
rio,250,1035.000000,-1,0,15
rio,251,3369.000000,1,15,-15
rio,252,2219.000000,1,15,5
rio,253,3467.000000,1,15,-5
rio,254,3099.000000,-1,-15,15
rio,255,2341.000000,1,-15,5
rio,256,6797.000000,-1,10,15
rio,257,1191.000000,1,10,-5
rio,258,1513.000000,-1,-10,10
rio,259,1293.000000,1,5,-5
rio,260,3559.000000,-1,-10,-15
rio,261,11404.000000,1,10,5
rio,262,1711.000000,-1,5,10
rio,263,1125.000000,1,15,-10
rio,264,1321.000000,-1,5,15
rio,265,1743.000000,-1,-5,15
rio,266,1859.000000,-1,5,-15
rio,267,973.000000,-1,-10,15
rio,268,1493.000000,1,-5,0
rio,269,1349.000000,-1,0,5
rio,270,1136.000000,1,-10,-5
rio,271,1317.000000,1,15,0
rio,272,4895.000000,-1,10,-15
rio,273,779.000000,-1,0,5
rio,274,649.000000,-1,0,-10
rio,275,1015.000000,1,-15,0
rio,276,941.000000,1,15,0
rio,277,5635.000000,1,10,-10
rio,278,783.000000,-1,-5,10
rio,279,1277.000000,1,-15,5
rio,280,2961.000000,-1,-15,15
rio,281,909.000000,-1,5,15
rio,282,1041.000000,1,-15,-10
rio,283,2045.000000,-1,5,10
rio,284,7741.000000,-1,15,-10
rio,285,1053.000000,1,5,0
rio,286,1001.000000,-1,-5,5
rio,287,775.000000,1,15,5
rio,288,893.000000,1,-15,5
rio,289,765.000000,-1,0,-5
rio,290,1623.000000,1,-15,10
rio,291,613.000000,1,-15,-10
rio,292,535.000000,-1,5,10
rio,293,881.000000,-1,5,-15
rio,294,771.000000,1,-10,5
rio,295,699.000000,-1,0,-15
rio,296,833.000000,-1,5,-15
rio,297,619.000000,-1,0,5
rio,298,1753.000000,-1,-10,10
rio,299,1679.000000,-1,5,-5
rio,300,1987.000000,1,15,-10
rio,301,683.000000,1,15,5
rio,302,755.000000,1,-10,0
rio,303,540.000000,-1,5,15
rio,304,925.000000,-1,-5,-15
rio,305,723.000000,-1,-5,15
rio,306,695.000000,-1,-10,-15
rio,307,513.000000,-1,5,15
rio,308,793.000000,1,-15,0
rio,309,5429.000000,1,-15,10
rio,310,1167.000000,-1,10,15
rio,311,965.000000,1,-10,0
rio,312,961.000000,-1,0,5
rio,313,2073.000000,-1,-5,10
rio,314,1031.000000,-1,5,15
rio,315,1403.000000,1,-15,-10
rio,316,885.000000,1,15,5
rio,317,1929.000000,1,10,5
rio,318,733.000000,-1,0,5
rio,319,875.000000,-1,0,10
rio,320,2267.000000,-1,0,-5
rio,321,871.000000,1,10,-5
rio,322,1507.000000,-1,-10,-15
rio,323,881.000000,1,10,0
rio,324,573.000000,-1,0,15
rio,325,657.000000,-1,0,5
rio,326,679.000000,1,-15,-5
rio,327,865.000000,-1,0,-15
rio,328,3643.000000,1,10,5
rio,329,773.000000,1,-10,0
rio,330,3739.000000,1,-15,10
rio,331,1131.000000,1,-15,0
rio,332,931.000000,-1,10,15
rio,333,523.000000,-1,0,-15
rio,334,1069.000000,1,-5,0
rio,335,1619.000000,1,15,-15
rio,336,1241.000000,-1,-10,15
rio,337,1743.000000,-1,-5,5
rio,338,528.000000,1,15,10
rio,339,789.000000,1,-15,-5
rio,340,3763.000000,-1,-15,5
rio,341,745.000000,-1,5,10
rio,342,1855.000000,1,-5,0
rio,343,3311.000000,-1,-5,-10
rio,344,997.000000,1,-10,-5
rio,345,609.000000,1,-15,-5
rio,346,525.000000,-1,0,10
rio,347,1845.000000,-1,-5,-10
rio,348,1279.000000,1,5,-5
rio,349,881.000000,1,-10,0
rio,350,1817.000000,1,10,-10
rio,351,1249.000000,-1,5,-15
rio,352,741.000000,1,10,-5
rio,353,1495.000000,1,15,5
rio,354,2101.000000,1,15,10
rio,355,2879.000000,-1,-5,-10
rio,356,1347.000000,-1,5,15
rio,357,860.000000,1,-15,-10
rio,358,998.000000,1,-10,-5
rio,359,3068.000000,-1,5,-10
rio,360,1318.000000,-1,0,-15
rio,361,1302.000000,-1,5,10
rio,362,1878.000000,-1,10,-15
rio,363,854.000000,1,10,-5
rio,364,2208.000000,-1,-5,5
rio,365,858.000000,-1,10,15
rio,366,1500.000000,1,15,10
rio,367,712.000000,-1,-5,15
rio,368,1684.000000,1,15,-10
rio,369,936.000000,-1,5,15
rio,370,5934.000000,-1,10,5
rio,371,1239.000000,-1,0,5
rio,372,1280.000000,-1,0,-10
rio,373,2664.000000,1,5,-5
rio,374,1908.000000,-1,10,15
rio,375,1024.000000,1,-10,0
rio,376,1732.000000,1,15,10
rio,377,1284.000000,1,15,-10
rio,378,2922.000000,-1,-10,-15
rio,379,1104.000000,1,5,-5
rio,380,1746.000000,1,15,-10
rio,381,1514.000000,-1,10,15
rio,382,698.000000,1,15,0
rio,383,1004.000000,-1,0,-15
rio,384,1026.000000,-1,5,10
rio,385,980.000000,-1,-10,-15
rio,386,1408.000000,-1,0,5
rio,387,838.000000,1,-15,-5
rio,388,3034.000000,1,-15,5
rio,389,2800.000000,-1,5,-10
rio,390,2672.000000,1,-15,10
rio,391,6170.000000,1,-15,15
rio,392,1172.000000,1,-10,5
rio,393,766.000000,-1,5,15
rio,394,4322.000000,1,-5,5
rio,395,2504.000000,1,-10,-5
rio,396,1264.000000,-1,10,15
rio,397,3392.000000,-1,-5,-10
rio,398,1826.000000,-1,0,-5
rio,399,1080.000000,-1,0,15
rio,400,872.000000,1,15,5
rio,401,1006.000000,1,-10,0
rio,402,696.000000,-1,0,15
rio,403,2576.000000,-1,-15,15
rio,404,1074.000000,-1,-5,-15
rio,405,632.000000,-1,0,10
rio,406,4754.000000,-1,-10,5
rio,407,1148.000000,1,5,-5
rio,408,880.000000,-1,0,-10
rio,409,1998.000000,1,15,10
rio,410,808.000000,-1,5,-15
rio,411,2233.000000,-1,15,-10
rio,412,706.000000,-1,0,-15
rio,413,938.000000,1,10,0
rio,414,2582.000000,1,-15,15
rio,415,1630.000000,1,-10,0
rio,416,7150.000000,-1,5,-15
rio,417,1008.000000,-1,0,-10
rio,418,734.000000,-1,0,-15
rio,419,1068.000000,1,10,-5
rio,420,1510.000000,-1,-10,15
rio,421,4436.000000,1,-15,5
rio,422,660.000000,-1,-10,15
rio,423,3920.000000,-1,-15,15
rio,424,938.000000,1,-10,-5
rio,425,2176.000000,1,-15,0
rio,426,1976.000000,1,10,-15
rio,427,950.000000,1,15,-15
rio,428,838.000000,-1,0,-15
rio,429,594.000000,-1,0,10
rio,430,940.000000,-1,-5,10
rio,431,784.000000,1,-15,-5
rio,432,1530.000000,-1,0,-5
rio,433,1510.000000,1,15,10
rio,434,2492.000000,1,15,-5
rio,435,1064.000000,-1,5,-15
rio,436,2998.000000,1,-10,10
rio,437,837.000000,1,-15,-5
rio,438,941.000000,-1,0,10
rio,439,1962.000000,1,-10,-5
rio,440,882.000000,1,-15,0
rio,441,3660.000000,-1,10,-10
rio,442,822.000000,-1,5,10
rio,443,3398.000000,1,10,-5
rio,444,1346.000000,1,5,0
rio,445,1213.000000,-1,-5,-15
rio,446,914.000000,1,15,5
rio,447,1293.000000,-1,0,-5
rio,448,802.000000,1,-15,-5
rio,449,744.000000,-1,0,10
rio,450,670.000000,1,15,5
rio,451,3959.000000,1,10,-10
rio,452,790.000000,1,15,-10
rio,453,1124.000000,1,5,0
rio,454,2382.000000,-1,-10,-15
rio,455,1686.000000,1,15,-15
rio,456,2064.000000,-1,-5,5
rio,457,616.000000,1,15,10
rio,458,622.000000,1,15,10
rio,459,782.000000,-1,-5,15
rio,460,586.000000,1,15,-5
rio,461,2652.000000,1,5,0
rio,462,730.000000,1,-10,0
rio,463,704.000000,1,-15,-10
rio,464,1168.000000,-1,5,10
rio,465,1058.000000,1,-15,-10
rio,466,1656.000000,-1,-10,10
rio,467,1412.000000,-1,5,-15
rio,468,1176.000000,-1,0,5
rio,469,1374.000000,-1,15,-15
rio,470,700.000000,-1,0,10
rio,471,944.000000,-1,-5,-10
rio,472,972.000000,-1,-5,-15
rio,473,810.000000,1,-5,0
rio,474,2246.000000,-1,-10,-15
rio,475,1802.000000,-1,-5,5
rio,476,2000.000000,1,10,-5
rio,477,662.000000,1,-10,5
cor,0,840.000000,-1,-15,15
cor,1,1214.000000,-1,-5,-15
cor,2,1000.000000,-1,0,15
cor,3,854.000000,-1,0,10
cor,4,756.000000,-1,-5,15
cor,5,1408.000000,1,10,-5
cor,6,2700.000000,1,-10,10
cor,7,2440.000000,1,10,-10
cor,8,1791.000000,-1,10,15
cor,9,1516.000000,1,-15,5
cor,10,1269.000000,1,15,-10
cor,11,1322.000000,1,0,-10
cor,12,838.000000,-1,0,10
cor,13,1146.000000,-1,-10,10
cor,14,1218.000000,-1,-10,5
cor,15,838.000000,-1,-15,5
cor,16,818.000000,1,15,-15
cor,17,916.000000,-1,-10,15
cor,18,1332.000000,1,10,5
cor,19,734.000000,-1,-5,5
cor,20,904.000000,1,-15,-10
cor,21,795.000000,1,-5,0
cor,22,2688.000000,-1,10,-5
cor,23,760.000000,1,-15,5
cor,24,1498.000000,1,5,0
cor,25,1320.000000,1,10,0
cor,26,1234.000000,1,5,0
cor,27,1216.000000,1,-15,-5
cor,28,1478.000000,-1,5,-15
cor,29,1130.000000,1,-10,5
cor,30,1061.000000,1,15,-15
cor,31,824.000000,-1,-5,10
cor,32,954.000000,1,-10,10
cor,33,819.000000,1,15,10
cor,34,2244.000000,-1,-5,15
cor,35,705.000000,1,15,10
cor,36,1091.000000,-1,0,5
cor,37,1216.000000,1,10,-10
cor,38,808.000000,-1,0,10
cor,39,2239.000000,1,5,-15
cor,40,1100.000000,1,-10,15
cor,41,1297.000000,1,10,-15
cor,42,749.000000,-1,5,15
cor,43,1282.000000,-1,0,5
cor,44,1238.000000,-1,0,10
cor,45,1227.000000,-1,10,15
cor,46,1963.000000,-1,0,10
cor,47,2023.000000,-1,0,5
cor,48,981.000000,1,-15,-10
cor,49,1668.000000,-1,-15,5
cor,50,1474.000000,-1,10,5
cor,51,1090.000000,1,-15,10
cor,52,1196.000000,1,-10,10
cor,53,1815.000000,-1,5,-5
cor,54,1460.000000,-1,5,-10
cor,55,939.000000,1,-15,5
cor,56,1763.000000,-1,0,-15
cor,57,1251.000000,1,15,10
cor,58,1447.000000,-1,10,0
cor,59,1270.000000,1,0,15
cor,60,2162.000000,1,5,-10
cor,61,1330.000000,1,-15,-5
cor,62,1270.000000,-1,10,15
cor,63,856.000000,-1,5,10
cor,64,1130.000000,1,15,0
cor,65,1520.000000,1,-10,-15
cor,66,1038.000000,1,10,5
cor,67,2044.000000,-1,10,15
cor,68,1406.000000,-1,-15,15
cor,69,1252.000000,-1,5,-10
cor,70,3703.000000,-1,-10,15
cor,71,1346.000000,-1,0,-15
cor,72,1043.000000,-1,10,15
cor,73,1000.000000,-1,-15,5
cor,74,941.000000,1,-5,0
cor,75,986.000000,1,15,0
cor,76,1735.000000,1,15,-15
cor,77,1015.000000,1,10,0
cor,78,971.000000,1,-5,10
cor,79,812.000000,1,-15,10
cor,80,5427.000000,-1,5,15
cor,81,1869.000000,1,5,-15
cor,82,988.000000,-1,-5,-10
cor,83,1625.000000,1,15,5
cor,84,912.000000,-1,-5,0
cor,85,1250.000000,1,10,0
cor,86,930.000000,-1,-5,0
cor,87,1696.000000,-1,-10,-5
cor,88,1650.000000,-1,5,15
cor,89,1000.000000,1,10,5
cor,90,1275.000000,1,0,-10
cor,91,867.000000,-1,-10,5
cor,92,874.000000,1,-15,10
cor,93,836.000000,1,10,0
cor,94,1199.000000,1,10,5
cor,95,1431.000000,-1,10,15
cor,96,882.000000,1,-15,0
cor,97,1010.000000,1,15,0
cor,98,734.000000,-1,0,15
cor,99,767.000000,-1,-10,-15
cor,100,1214.000000,-1,0,15
cor,101,867.000000,-1,-5,5
cor,102,665.000000,1,15,-5
cor,103,1163.000000,1,-15,-5
cor,104,1519.000000,1,0,-5
cor,105,1034.000000,1,5,0
cor,106,727.000000,1,10,-5
cor,107,2086.000000,-1,15,-10
cor,108,1396.000000,-1,0,-10
cor,109,2454.000000,1,15,-10
cor,110,841.000000,-1,5,15
cor,111,815.000000,1,-15,-5
cor,112,1485.000000,-1,-10,10
cor,113,701.000000,1,15,-5
cor,114,1330.000000,1,-5,5
cor,115,2231.000000,1,-10,5
cor,116,947.000000,1,10,5
cor,117,1119.000000,-1,-5,-10
cor,118,932.000000,-1,5,10
cor,119,1265.000000,-1,5,-15
cor,120,1022.000000,1,-5,0
cor,121,2059.000000,1,5,0
cor,122,4260.000000,-1,15,-10
cor,123,2192.000000,-1,-10,-15
cor,124,1148.000000,-1,0,-15
cor,125,1653.000000,1,-15,5
cor,126,1036.000000,-1,0,-5
cor,127,1317.000000,1,15,0
cor,128,4777.000000,1,-15,-5
cor,129,989.000000,-1,-5,-10
cor,130,1046.000000,-1,-10,-15
cor,131,6720.000000,1,-10,-5
cor,132,1561.000000,1,-15,15
cor,133,922.000000,1,-15,15
cor,134,754.000000,1,-10,5
cor,135,1107.000000,-1,5,-5
cor,136,837.000000,1,-10,0
cor,137,2880.000000,-1,10,15
cor,138,1369.000000,-1,0,15
cor,139,1243.000000,-1,0,-5
cor,140,1568.000000,1,-10,-5
cor,141,2030.000000,-1,-10,5
cor,142,1777.000000,-1,10,-15
cor,143,2020.000000,1,15,10
cor,144,1134.000000,-1,0,-10
cor,145,2771.000000,1,-15,5
cor,146,1264.000000,-1,-5,-15
cor,147,780.000000,1,-15,5
cor,148,1570.000000,-1,5,-15
cor,149,896.000000,1,-10,5
cor,150,1090.000000,1,-10,15
cor,151,1130.000000,-1,10,15
cor,152,2023.000000,-1,-5,-15
cor,153,1082.000000,1,-5,0
cor,154,946.000000,1,-15,-10
cor,155,1018.000000,1,15,-10
cor,156,1554.000000,-1,10,5
cor,157,1406.000000,1,-15,-10
cor,158,792.000000,-1,0,-10
cor,159,1409.000000,1,-10,5
cor,160,1732.000000,1,10,-5
cor,161,706.000000,-1,-15,15
cor,162,1034.000000,-1,-10,-5
cor,163,972.000000,1,15,0
cor,164,898.000000,-1,0,15
cor,165,762.000000,1,15,5
cor,166,1410.000000,-1,-5,10
cor,167,1146.000000,-1,-5,10
cor,168,1418.000000,-1,5,-10
cor,169,5402.000000,1,-15,-10
cor,170,1437.000000,1,5,-5
cor,171,1158.000000,1,15,10
cor,172,1116.000000,-1,0,15
cor,173,1616.000000,1,15,5
cor,174,1125.000000,1,-15,0
cor,175,1058.000000,1,15,0
cor,176,1126.000000,1,5,-5
cor,177,1733.000000,1,10,0
cor,178,2332.000000,1,15,-15
cor,179,766.000000,-1,-5,-10
cor,180,1212.000000,1,-10,-5
cor,181,2483.000000,-1,5,-15
cor,182,9458.000000,-1,-10,-15
cor,183,7468.000000,1,-15,-10
cor,184,1452.000000,1,10,5
cor,185,1104.000000,-1,5,0
cor,186,1198.000000,1,-15,0
cor,187,1302.000000,1,-10,15
cor,188,790.000000,-1,0,10
cor,189,816.000000,-1,-5,-15
cor,190,1102.000000,-1,-5,15
cor,191,1258.000000,1,-15,15
cor,192,1704.000000,1,10,0
cor,193,872.000000,-1,5,15
cor,194,2030.000000,1,5,-10
cor,195,1014.000000,1,-15,-10
cor,196,989.000000,-1,0,15
cor,197,1026.000000,-1,0,-5
cor,198,1442.000000,1,0,5
cor,199,824.000000,1,-10,0
cor,200,1068.000000,-1,5,0
cor,201,800.000000,-1,5,15
cor,202,1540.000000,1,10,5
cor,203,916.000000,-1,0,15
cor,204,830.000000,1,15,5
cor,205,1200.000000,-1,-15,-10
cor,206,1182.000000,-1,10,-15
cor,207,1878.000000,1,10,-15
cor,208,1600.000000,1,15,5
cor,209,1010.000000,1,-15,0
cor,210,1666.000000,-1,5,10
cor,211,1082.000000,-1,15,-15
cor,212,1196.000000,1,-15,10
cor,213,1156.000000,1,-10,-5
cor,214,792.000000,1,-15,5
cor,215,3204.000000,1,15,-5
cor,216,998.000000,-1,5,-10
cor,217,672.000000,-1,-5,10
cor,218,1258.000000,1,-15,10
cor,219,956.000000,1,-15,5
cor,220,1140.000000,-1,-5,-10
cor,221,1228.000000,1,5,0
cor,222,910.000000,-1,-5,15
cor,223,938.000000,-1,5,0
cor,224,1990.000000,1,-15,-5
cor,225,744.000000,1,-15,0
cor,226,1042.000000,1,-5,0
cor,227,808.000000,1,10,5
cor,228,2340.000000,1,15,-10
cor,229,988.000000,-1,-5,5
cor,230,1334.000000,-1,-5,-15
cor,231,796.000000,-1,-10,10
cor,232,1092.000000,1,15,-10
cor,233,1302.000000,1,-10,-5
cor,234,1056.000000,-1,-5,5
cor,235,1378.000000,1,0,-15
cor,236,1044.000000,-1,0,10
cor,237,854.000000,-1,-10,15
cor,238,5567.000000,1,-15,15
cor,239,2591.000000,-1,5,10
cor,240,3171.000000,1,5,-5
cor,241,1619.000000,1,-10,15
cor,242,1357.000000,1,10,-5
cor,243,2315.000000,1,-5,0
cor,244,839.000000,-1,0,15
cor,245,1815.000000,1,15,-10
cor,246,1135.000000,-1,10,-10
cor,247,1193.000000,-1,5,-10
cor,248,1115.000000,-1,0,15
cor,249,1071.000000,-1,15,-15
cor,250,1275.000000,1,15,5
cor,251,1175.000000,1,15,-5
cor,252,1677.000000,1,-15,15
cor,253,2511.000000,1,-15,5
cor,254,1839.000000,-1,10,15
cor,255,1321.000000,1,10,-5
cor,256,2011.000000,-1,-10,10
cor,257,1417.000000,1,5,-5
cor,258,1463.000000,-1,-10,-15
cor,259,1379.000000,1,10,5
cor,260,2063.000000,-1,5,10
cor,261,3785.000000,-1,15,-10
cor,262,869.000000,-1,5,15
cor,263,1925.000000,-1,-5,15
cor,264,1615.000000,1,5,-15
cor,265,2597.000000,-1,-10,15
cor,266,1445.000000,-1,-5,0
cor,267,2333.000000,-1,-5,10
cor,268,2255.000000,1,0,5
cor,269,2641.000000,1,-10,-5
cor,270,1347.000000,1,15,0
cor,271,965.000000,-1,10,-15
cor,272,1605.000000,-1,0,5
cor,273,1451.000000,-1,0,-10
cor,274,815.000000,1,-15,0
cor,275,975.000000,1,15,0
cor,276,1439.000000,-1,10,-10
cor,277,4807.000000,-1,-5,10
cor,278,753.000000,1,-15,5
cor,279,1160.000000,1,-15,15
cor,280,797.000000,1,5,15
cor,281,2099.000000,1,-15,-10
cor,282,1859.000000,-1,5,10
cor,283,2849.000000,-1,15,-10
cor,284,5483.000000,-1,5,0
cor,285,2343.000000,1,-5,5
cor,286,1039.000000,1,15,5
cor,287,899.000000,1,-15,5
cor,288,1273.000000,-1,0,-5
cor,289,5259.000000,1,-15,10
cor,290,1439.000000,1,-15,-10
cor,291,1531.000000,-1,5,10
cor,292,763.000000,-1,5,-15
cor,293,1093.000000,-1,-10,5
cor,294,1131.000000,-1,0,-15
cor,295,779.000000,-1,5,-15
cor,296,847.000000,1,0,5
cor,297,1723.000000,-1,-10,10
cor,298,2028.000000,1,5,-5
cor,299,3873.000000,1,15,-10
cor,300,987.000000,1,15,5
cor,301,1955.000000,-1,-10,0
cor,302,743.000000,-1,5,15
cor,303,1019.000000,-1,-5,-15
cor,304,837.000000,-1,-5,15
cor,305,997.000000,-1,-10,-15
cor,306,1079.000000,-1,5,15
cor,307,1351.000000,-1,-15,0
cor,308,1336.000000,-1,-15,10
cor,309,1265.000000,-1,10,15
cor,310,1217.000000,1,-10,0
cor,311,1767.000000,-1,0,5
cor,312,699.000000,-1,-5,10
cor,313,1201.000000,-1,5,15
cor,314,1365.000000,1,-15,-10
cor,315,1045.000000,1,15,5
cor,316,2485.000000,-1,10,5
cor,317,739.000000,-1,0,5
cor,318,959.000000,-1,0,10
cor,319,1877.000000,-1,0,-5
cor,320,1346.000000,-1,10,-5
cor,321,901.000000,-1,-10,-15
cor,322,1199.000000,1,10,0
cor,323,1161.000000,-1,0,15
cor,324,1580.000000,-1,0,5
cor,325,765.000000,1,-15,-5
cor,326,1339.000000,-1,0,-15
cor,327,1759.000000,1,10,5
cor,328,1253.000000,1,-10,0
cor,329,1333.000000,1,-15,10
cor,330,1125.000000,-1,-15,0
cor,331,1343.000000,-1,10,15
cor,332,1057.000000,-1,0,-15
cor,333,1343.000000,1,-5,0
cor,334,1891.000000,1,15,-15
cor,335,932.000000,-1,-10,15
cor,336,1189.000000,-1,-5,5
cor,337,579.000000,1,15,10
cor,338,7567.000000,1,-15,-5
cor,339,873.000000,-1,-15,5
cor,340,1283.000000,-1,5,10
cor,341,1465.000000,-1,-5,0
cor,342,1381.000000,-1,-5,-10
cor,343,1828.000000,1,-10,-5
cor,344,1097.000000,1,-15,-5
cor,345,1016.000000,-1,0,10
cor,346,2657.000000,-1,-5,-10
cor,347,1061.000000,1,5,-5
cor,348,1495.000000,1,-10,0
cor,349,1225.000000,1,10,-10
cor,350,1231.000000,-1,5,-15
cor,351,1069.000000,1,10,-5
cor,352,991.000000,1,15,5
cor,353,912.000000,1,15,10
cor,354,1343.000000,-1,-5,-10
cor,355,775.000000,-1,5,15
cor,356,937.000000,1,-15,-10
cor,357,1436.000000,1,-10,-5
cor,358,3067.000000,-1,-15,15
cor,359,1105.000000,1,5,10
cor,360,1715.000000,1,5,-5
cor,361,2143.000000,-1,-10,15
cor,362,1011.000000,1,10,-5
cor,363,2689.000000,1,-5,0
cor,364,1116.000000,-1,0,15
cor,365,777.000000,1,15,-10
cor,366,1145.000000,1,10,-10
cor,367,3713.000000,-1,5,-10
cor,368,1145.000000,-1,0,15
cor,369,1371.000000,1,15,-15
cor,370,1239.000000,1,15,5
cor,371,4011.000000,-1,15,-5
cor,372,2143.000000,-1,-15,15
cor,373,6399.000000,-1,-15,5
cor,374,2357.000000,-1,10,15
cor,375,2489.000000,1,10,-5
cor,376,2451.000000,-1,-10,10
cor,377,1405.000000,1,5,-5
cor,378,1271.000000,-1,-10,-15
cor,379,1189.000000,1,10,5
cor,380,3295.000000,-1,5,10
cor,381,1675.000000,1,15,-10
cor,382,1015.000000,-1,5,15
cor,383,2775.000000,-1,-5,15
cor,384,1843.000000,-1,5,-15
cor,385,3030.000000,-1,-10,15
cor,386,1403.000000,-1,-5,0
cor,387,971.000000,-1,-5,10
cor,388,961.000000,-1,0,5
cor,389,1353.000000,1,-10,-5
cor,390,1219.000000,1,15,0
cor,391,3123.000000,1,10,-15
cor,392,1087.000000,-1,0,5
cor,393,2345.000000,-1,0,-10
cor,394,2693.000000,1,-15,0
cor,395,1100.000000,1,15,0
cor,396,1413.000000,1,10,-10
cor,397,809.000000,-1,-5,10
cor,398,975.000000,1,-15,5
cor,399,4139.000000,1,-15,15
cor,400,2857.000000,-1,5,15
cor,401,3045.000000,1,-15,-10
cor,402,3461.000000,1,5,10
cor,403,1564.000000,-1,15,-10
cor,404,1715.000000,-1,5,0
cor,405,6883.000000,1,-5,5
cor,406,1859.000000,-1,15,5
cor,407,1245.000000,1,-15,5
cor,408,1638.000000,-1,0,-5
cor,409,1227.000000,1,-15,10
cor,410,1757.000000,1,-15,-10
cor,411,1153.000000,-1,5,10
cor,412,833.000000,-1,5,-15
cor,413,923.000000,1,-10,5
cor,414,931.000000,-1,0,-15
cor,415,795.000000,-1,5,-15
cor,416,2145.000000,-1,0,5
cor,417,921.000000,1,-10,10
cor,418,1733.000000,1,5,-5
cor,419,2779.000000,1,15,-10
cor,420,1113.000000,1,15,5
cor,421,1027.000000,1,-10,0
cor,422,1031.000000,-1,5,15
cor,423,911.000000,-1,-5,-15
cor,424,997.000000,-1,-5,15
cor,425,3581.000000,-1,-10,-15
cor,426,1159.000000,-1,5,15
cor,427,1705.000000,1,-15,0
cor,428,1057.000000,1,-15,10
cor,429,2758.000000,-1,10,15
cor,430,1009.000000,1,-10,0
cor,431,1993.000000,1,0,5
cor,432,1357.000000,1,-5,10
cor,433,2598.000000,-1,5,15
cor,434,3871.000000,1,-15,-10
cor,435,1647.000000,1,15,5
cor,436,1519.000000,-1,10,5
cor,437,1433.000000,-1,0,5
cor,438,791.000000,-1,0,10
cor,439,855.000000,-1,0,-5
cor,440,1115.000000,-1,10,-5
cor,441,1991.000000,-1,-10,-15
cor,442,1507.000000,1,10,0
cor,443,1439.000000,-1,0,15
cor,444,2589.000000,-1,0,5
cor,445,831.000000,1,-15,-5
cor,446,913.000000,-1,0,-15
cor,447,1817.000000,1,10,5
cor,448,1023.000000,1,-10,0
cor,449,1413.000000,-1,-15,10
cor,450,1123.000000,1,-15,0
cor,451,1039.000000,-1,10,15
cor,452,902.000000,-1,0,-15
cor,453,953.000000,-1,-5,0
cor,454,5749.000000,1,15,-15
cor,455,755.000000,-1,-10,15
cor,456,1323.000000,-1,-5,5
cor,457,1583.000000,1,15,10
cor,458,1932.000000,1,-15,-5
cor,459,849.000000,1,-15,5
cor,460,815.000000,-1,5,10
cor,461,3809.000000,-1,-5,0
cor,462,801.000000,-1,-5,-10
cor,463,2685.000000,1,-10,-5
cor,464,1083.000000,1,-15,-5
cor,465,1695.000000,-1,0,10
cor,466,908.000000,-1,-5,-10
cor,467,1389.000000,1,5,-5
cor,468,783.000000,1,-10,0
cor,469,773.000000,-1,10,-10
cor,470,945.000000,-1,5,-15
cor,471,829.000000,-1,10,-5
cor,472,2931.000000,1,15,5
cor,473,2529.000000,-1,15,10
cor,474,1183.000000,-1,-5,-10
cor,475,831.000000,-1,5,15
cor,476,917.000000,1,-15,-10
cor,477,962.000000,1,-10,-5
sal,0,1495.000000,-1,10,-10
sal,1,1432.000000,1,-5,0
sal,2,1793.000000,-1,5,15
sal,3,4080.000000,-1,-5,-10
sal,4,1634.000000,-1,0,-10
sal,5,7697.000000,-1,-10,15
sal,6,1244.000000,1,-5,5
sal,7,5289.000000,1,10,-5
sal,8,1544.000000,-1,-5,15
sal,9,1376.000000,1,15,-10
sal,10,1415.000000,1,-15,15
sal,11,2114.000000,-1,-5,10
sal,12,3688.000000,1,10,5
sal,13,10740.000000,1,15,10
sal,14,3649.000000,-1,10,-10
sal,15,1320.000000,-1,15,-15
sal,16,1006.000000,1,-10,15
sal,17,1866.000000,1,-5,5
sal,18,1528.000000,-1,5,-5
sal,19,1560.000000,1,-10,15
sal,20,1674.000000,-1,10,-15
sal,21,3340.000000,-1,0,5
sal,22,4498.000000,-1,0,10
sal,23,1256.000000,-1,10,15
sal,24,1845.000000,-1,0,10
sal,25,1460.000000,-1,0,5
sal,26,1426.000000,1,-15,-10
sal,27,972.000000,1,-15,5
sal,28,1062.000000,-1,-5,0
sal,29,3724.000000,-1,-10,5
sal,30,1930.000000,1,-15,0
sal,31,1154.000000,1,5,-15
sal,32,2297.000000,1,-15,-5
sal,33,15136.000000,-1,-10,-15
sal,34,1496.000000,-1,-5,-15
sal,35,901.000000,1,10,-10
sal,36,7166.000000,-1,-15,-10
sal,37,1089.000000,-1,-10,10
sal,38,2351.000000,1,15,-15
sal,39,958.000000,1,-10,-5
sal,40,2020.000000,-1,-5,0
sal,41,1120.000000,1,-15,-5
sal,42,3634.000000,-1,10,15
sal,43,882.000000,1,-5,5
sal,44,782.000000,-1,-5,10
sal,45,1390.000000,-1,-5,0
sal,46,2094.000000,1,15,10
sal,47,1516.000000,1,5,-5
sal,48,1322.000000,1,15,-5
sal,49,1682.000000,-1,0,5
sal,50,1022.000000,1,10,-15
sal,51,1646.000000,-1,-5,-15
sal,52,1052.000000,1,15,5
sal,53,896.000000,1,15,5
sal,54,4708.000000,-1,-5,-15
sal,55,946.000000,1,10,5
sal,56,2726.000000,-1,0,-10
sal,57,1408.000000,1,-10,5
sal,58,1712.000000,1,-15,10
sal,59,916.000000,1,10,0
sal,60,1534.000000,1,10,5
sal,61,1190.000000,-1,10,15
sal,62,926.000000,1,-15,0
sal,63,810.000000,1,15,0
sal,64,884.000000,-1,0,15
sal,65,2354.000000,-1,-10,15
sal,66,1476.000000,-1,-15,10
sal,67,866.000000,1,15,-5
sal,68,4190.000000,1,15,10
sal,69,4536.000000,-1,-15,0
sal,70,1422.000000,1,5,-10
sal,71,952.000000,1,5,-15
sal,72,2112.000000,-1,-5,0
sal,73,1600.000000,-1,-15,5
sal,74,2354.000000,1,0,-15
sal,75,3608.000000,1,5,-15
sal,76,1036.000000,-1,0,5
sal,77,2184.000000,-1,-15,0
sal,78,1580.000000,-1,5,10
sal,79,822.000000,1,15,-15
sal,80,6700.000000,1,0,-5
sal,81,2244.000000,1,5,-10
sal,82,904.000000,-1,-10,15
sal,83,1722.000000,-1,-10,0
sal,84,1090.000000,1,10,-5
sal,85,3510.000000,1,5,0
sal,86,3934.000000,1,5,-5
sal,87,894.000000,-1,0,10
sal,88,742.000000,-1,-5,5
sal,89,936.000000,1,15,5
sal,90,1614.000000,1,10,-15
sal,91,1274.000000,1,5,-10
sal,92,1354.000000,-1,0,5
sal,93,1008.000000,1,-15,-10
sal,94,4878.000000,-1,-10,10
sal,95,3016.000000,-1,5,-15
sal,96,1280.000000,1,15,-5
sal,97,612.000000,-1,-10,15
sal,98,2298.000000,1,-5,15
sal,99,1176.000000,1,10,0
sal,100,672.000000,1,10,-5
sal,101,678.000000,1,-15,-10
sal,102,888.000000,-1,0,10
sal,103,1586.000000,1,0,-5
sal,104,1110.000000,-1,-10,-15
sal,105,744.000000,-1,0,15
sal,106,4086.000000,-1,-5,5
sal,107,702.000000,1,15,-5
sal,108,710.000000,1,-15,-5
sal,109,1048.000000,-1,0,-5
sal,110,1742.000000,-1,5,0
sal,111,4088.000000,1,10,-5
sal,112,1752.000000,-1,15,-10
sal,113,884.000000,1,15,0
sal,114,2626.000000,-1,-5,5
sal,115,5748.000000,1,-10,0
sal,116,1054.000000,-1,-5,15
sal,117,4588.000000,1,5,-15
sal,118,1504.000000,-1,-10,15
sal,119,1778.000000,-1,0,5
sal,120,1172.000000,1,15,5
sal,121,1736.000000,-1,-10,10
sal,122,788.000000,1,15,-10
sal,123,3154.000000,-1,-5,-10
sal,124,1896.000000,1,10,-10
sal,125,1374.000000,-1,-10,-15
sal,126,1708.000000,-1,0,5
sal,127,970.000000,1,10,5
sal,128,1732.000000,1,-15,5
sal,129,908.000000,-1,0,-10
sal,130,1762.000000,1,-15,10
sal,131,1086.000000,-1,0,10
sal,132,1476.000000,-1,-5,-10
sal,133,1354.000000,1,15,-15
sal,134,4334.000000,-1,-15,-5
sal,135,1070.000000,-1,0,10
sal,136,1352.000000,-1,-5,10
sal,137,1306.000000,-1,-5,5
sal,138,824.000000,1,15,-5
sal,139,938.000000,1,15,10
sal,140,630.000000,1,15,0
sal,141,1320.000000,1,10,-10
sal,142,932.000000,1,5,-15
sal,143,3080.000000,1,15,10
sal,144,1150.000000,1,10,0
sal,145,4818.000000,1,5,-5
sal,146,980.000000,-1,-5,15
sal,147,1636.000000,-1,-10,10
sal,148,2122.000000,1,5,-10
sal,149,1282.000000,1,10,-10
sal,150,2248.000000,1,10,5
sal,151,2278.000000,1,-15,5
sal,152,1094.000000,-1,10,15
sal,153,1844.000000,-1,15,0
sal,154,3812.000000,1,-10,0
sal,155,2838.000000,1,5,-5
sal,156,1428.000000,1,0,-5
sal,157,3528.000000,1,5,-15
sal,158,1348.000000,1,15,-10
sal,159,996.000000,1,15,5
sal,160,2750.000000,-1,5,0
sal,161,2102.000000,1,-10,-5
sal,162,6964.000000,-1,-10,5
sal,163,1500.000000,1,-15,-10
sal,164,1442.000000,1,-15,-5
sal,165,1092.000000,1,10,5
sal,166,1746.000000,-1,5,-10
sal,167,800.000000,1,15,-15
sal,168,1392.000000,1,15,-10
sal,169,1476.000000,-1,-5,-15
sal,170,1658.000000,-1,-15,10
sal,171,14884.000000,1,5,0
sal,172,1046.000000,1,10,-5
sal,173,1380.000000,1,10,-15
sal,174,1586.000000,1,15,-15
sal,175,1130.000000,1,-15,0
sal,176,736.000000,-1,0,10
sal,177,1392.000000,-1,-15,15
sal,178,1298.000000,1,-10,0
sal,179,1630.000000,1,5,-5
sal,180,1054.000000,1,15,10
sal,181,798.000000,1,-10,0
sal,182,1308.000000,-1,-10,-15
sal,183,1182.000000,1,-10,10
sal,184,918.000000,-1,5,15
sal,185,1134.000000,-1,0,-15
sal,186,1030.000000,-1,-5,15
sal,187,1134.000000,-1,0,-10
sal,188,2620.000000,1,-15,15
sal,189,888.000000,-1,-5,5
sal,190,682.000000,1,15,10
sal,191,814.000000,-1,5,-15
sal,192,794.000000,-1,0,15
sal,193,650.000000,1,-15,5
sal,194,872.000000,-1,10,-10
sal,195,906.000000,-1,5,-10
sal,196,1080.000000,1,15,-15
sal,197,2596.000000,1,0,-15
sal,198,1278.000000,-1,0,15
sal,199,710.000000,-1,0,15
sal,200,956.000000,-1,-15,10
sal,201,898.000000,-1,5,10
sal,202,2186.000000,1,5,0
sal,203,890.000000,1,-15,-5
sal,204,2126.000000,-1,-5,0
sal,205,1228.000000,-1,-5,-15
sal,206,1192.000000,-1,5,-15
sal,207,770.000000,1,15,0
sal,208,1142.000000,-1,5,10
sal,209,570.000000,1,10,5
sal,210,1512.000000,1,15,-5
sal,211,1148.000000,-1,5,10
sal,212,1374.000000,1,-15,0
sal,213,1920.000000,-1,15,-15
sal,214,2594.000000,1,-5,-15
sal,215,1402.000000,1,10,0
sal,216,1320.000000,1,15,0
sal,217,1826.000000,-1,-10,5
sal,218,1144.000000,-1,-5,-15
sal,219,738.000000,1,10,-5
sal,220,744.000000,1,5,-5
sal,221,800.000000,1,15,-5
sal,222,811.000000,-1,-15,15
sal,223,1115.000000,-1,5,10
sal,224,819.000000,1,5,-5
sal,225,849.000000,-1,-10,15
sal,226,717.000000,1,10,-5
sal,227,1505.000000,-1,-5,0
sal,228,787.000000,-1,0,15
sal,229,2007.000000,1,15,-10
sal,230,1269.000000,1,10,-10
sal,231,2076.000000,1,5,-10
sal,232,965.000000,1,15,-15
sal,233,2053.000000,1,15,5
sal,234,769.000000,1,15,-5
sal,235,875.000000,-1,-15,15
sal,236,629.000000,-1,-15,5
sal,237,3265.000000,-1,10,15
sal,238,923.000000,1,10,-5
sal,239,753.000000,1,5,-5
sal,240,2881.000000,-1,15,-10
sal,241,895.000000,-1,5,15
sal,242,1497.000000,1,5,-15
sal,243,1405.000000,-1,-10,15
sal,244,1673.000000,-1,-5,0
sal,245,753.000000,-1,-5,10
sal,246,1701.000000,1,0,5
sal,247,707.000000,1,-10,-5
sal,248,1241.000000,1,15,0
sal,249,3718.000000,-1,10,-15
sal,250,2415.000000,-1,0,5
sal,251,1211.000000,-1,0,-10
sal,252,1377.000000,1,-15,0
sal,253,999.000000,1,15,0
sal,254,1107.000000,1,10,-10
sal,255,1171.000000,-1,-5,10
sal,256,1008.000000,1,-15,5
sal,257,1851.000000,-1,-15,15
sal,258,1041.000000,-1,5,15
sal,259,1293.000000,1,-15,-10
sal,260,1029.000000,-1,5,10
sal,261,869.000000,1,15,-10
sal,262,1865.000000,1,5,0
sal,263,3709.000000,-1,-5,5
sal,264,819.000000,1,15,5
sal,265,1517.000000,-1,-15,5
sal,266,1683.000000,-1,0,-5
sal,267,1719.000000,1,-15,10
sal,268,1366.000000,-1,5,10
sal,269,1423.000000,-1,5,-15
sal,270,821.000000,1,-10,5
sal,271,747.000000,-1,0,-15
sal,272,689.000000,-1,5,-15
sal,273,1439.000000,-1,0,5
sal,274,2147.000000,-1,-10,10
sal,275,853.000000,1,5,-5
sal,276,1685.000000,1,15,-10
sal,277,669.000000,1,15,5
sal,278,1164.000000,1,-10,0
sal,279,941.000000,-1,5,15
sal,280,983.000000,-1,-5,-15
sal,281,869.000000,-1,-5,15
sal,282,639.000000,-1,5,15
sal,283,737.000000,1,-15,0
sal,284,1679.000000,-1,-15,10
sal,285,1111.000000,-1,10,15
sal,286,3637.000000,-1,-10,0
sal,287,853.000000,-1,0,5
sal,288,1063.000000,-1,-5,10
sal,289,619.000000,-1,5,15
sal,290,1027.000000,1,-15,-10
sal,291,727.000000,1,15,5
sal,292,853.000000,1,10,5
sal,293,1239.000000,-1,0,5
sal,294,887.000000,-1,0,10
sal,295,733.000000,1,10,-5
sal,296,1295.000000,1,10,0
sal,297,871.000000,-1,0,15
sal,298,795.000000,1,-15,-5
sal,299,979.000000,-1,0,-15
sal,300,1039.000000,1,10,5
sal,301,947.000000,1,-10,0
sal,302,1365.000000,1,-15,10
sal,303,1051.000000,1,-15,0
sal,304,705.000000,-1,10,15
sal,305,955.000000,-1,0,-15
sal,306,899.000000,1,-5,0
sal,307,1321.000000,1,15,-15
sal,308,2911.000000,-1,-10,15
sal,309,1019.000000,-1,-5,5
sal,310,639.000000,1,-15,-5
sal,311,1103.000000,1,-15,5
sal,312,1521.000000,-1,5,10
sal,313,3331.000000,-1,-5,0
sal,314,1191.000000,-1,-5,-10
sal,315,1452.000000,1,-10,-5
sal,316,851.000000,1,-15,-5
sal,317,715.000000,1,5,-5
sal,318,2067.000000,-1,-10,0
sal,319,1591.000000,1,10,-10
sal,320,816.000000,-1,5,-15
sal,321,2015.000000,1,10,-5
sal,322,2011.000000,1,15,5
sal,323,3755.000000,1,-5,-10
sal,324,717.000000,-1,5,15
sal,325,758.000000,1,-15,-10
sal,326,1111.000000,1,-10,-5
sal,327,1865.000000,1,-15,15
sal,328,2029.000000,-1,5,10
sal,329,2237.000000,1,5,-5
sal,330,1051.000000,-1,-10,15
sal,331,857.000000,1,10,-5
sal,332,1135.000000,-1,-5,0
sal,333,859.000000,-1,0,15
sal,334,2019.000000,1,15,-10
sal,335,1065.000000,-1,10,-10
sal,336,2025.000000,1,5,-10
sal,337,865.000000,-1,0,15
sal,338,1441.000000,1,15,-15
sal,339,937.000000,1,15,5
sal,340,645.000000,1,15,-5
sal,341,737.000000,-1,-15,15
sal,342,699.000000,-1,-15,5
sal,343,1093.000000,1,10,-5
sal,344,745.000000,1,5,-5
sal,345,6589.000000,1,10,5
sal,346,5695.000000,1,5,10
sal,347,915.000000,1,15,-10
sal,348,1271.000000,-1,5,15
sal,349,1879.000000,-1,-5,15
sal,350,1823.000000,-1,5,-15
sal,351,2405.000000,-1,-10,15
sal,352,5121.000000,-1,-5,0
sal,353,1315.000000,-1,-5,10
sal,354,1275.000000,-1,0,5
sal,355,4235.000000,-1,-10,-5
sal,356,1201.000000,1,15,0
sal,357,1451.000000,1,10,-15
sal,358,966.000000,-1,0,5
sal,359,1273.000000,1,0,-10
sal,360,1497.000000,-1,-15,0
sal,361,865.000000,1,15,0
sal,362,771.000000,1,10,-10
sal,363,685.000000,-1,-5,10
sal,364,2345.000000,1,-15,5
sal,365,5783.000000,-1,-15,15
sal,366,1503.000000,1,5,15
sal,367,1461.000000,1,-15,-10
sal,368,1021.000000,-1,5,10
sal,369,815.000000,1,15,-10
sal,370,1875.000000,1,5,0
sal,371,1441.000000,-1,-5,5
sal,372,819.000000,1,15,5
sal,373,1442.000000,-1,-15,5
sal,374,1033.000000,-1,0,-5
sal,375,1333.000000,1,-15,10
sal,376,1563.000000,1,-15,-10
sal,377,1071.000000,-1,5,10
sal,378,1174.000000,-1,5,-15
sal,379,1453.000000,1,-10,5
sal,380,841.000000,-1,0,-15
sal,381,709.000000,-1,5,-15
sal,382,1455.000000,1,0,5
sal,383,1271.000000,1,-10,10
sal,384,655.000000,1,5,-5
sal,385,1067.000000,1,15,-10
sal,386,676.000000,1,-10,0
sal,387,817.000000,-1,5,15
sal,388,921.000000,-1,-5,-15
sal,389,617.000000,-1,5,15
sal,390,919.000000,1,-15,0
sal,391,1939.000000,1,-15,10
sal,392,1123.000000,-1,10,15
sal,393,919.000000,1,-10,0
sal,394,739.000000,-1,-5,10
sal,395,1238.000000,1,-15,-10
sal,396,709.000000,1,15,5
sal,397,931.000000,1,10,5
sal,398,1117.000000,-1,0,5
sal,399,825.000000,-1,0,10
sal,400,807.000000,1,0,-5
sal,401,981.000000,1,10,-5
sal,402,1053.000000,-1,-10,-15
sal,403,829.000000,1,10,0
sal,404,868.000000,-1,0,15
sal,405,639.000000,-1,0,5
sal,406,611.000000,1,-15,-5
sal,407,661.000000,-1,0,-15
sal,408,1187.000000,1,-10,0
sal,409,997.000000,1,-15,10
sal,410,757.000000,1,-15,0
sal,411,729.000000,-1,0,-15
sal,412,1479.000000,1,-5,0
sal,413,1219.000000,-1,15,-15
sal,414,1347.000000,-1,-10,15
sal,415,777.000000,1,-5,5
sal,416,630.000000,1,15,10
sal,417,1181.000000,1,-15,-5
sal,418,1487.000000,1,-15,5
sal,419,803.000000,-1,5,10
sal,420,1499.000000,-1,-5,0
sal,421,744.000000,-1,-5,-10
sal,422,795.000000,1,-10,-5
sal,423,653.000000,1,-15,-5
sal,424,761.000000,-1,0,10
sal,425,779.000000,1,-5,-10
sal,426,1321.000000,1,5,-5
sal,427,749.000000,1,-10,0
sal,428,2757.000000,-1,10,-10
sal,429,1095.000000,-1,5,-15
sal,430,1280.000000,1,10,-5
sal,431,707.000000,1,15,5
sal,432,1379.000000,1,15,10
sal,433,1265.000000,-1,-5,-10
sal,434,717.000000,-1,5,15
sal,435,651.000000,1,-15,-10
sal,436,567.000000,1,-10,-5
mel,0,2094.000000,1,-15,5
mel,1,2860.000000,1,0,5
mel,2,2810.000000,1,-15,0
mel,3,3910.000000,1,-10,0
mel,4,4338.000000,1,15,10
mel,5,1520.000000,1,15,0
mel,6,2010.000000,-1,0,-10
mel,7,13298.000000,1,10,-15
mel,8,3862.000000,1,-5,10
mel,9,3326.000000,1,0,-10
mel,10,1480.000000,-1,0,5
mel,11,5992.000000,1,-10,0
mel,12,3576.000000,-1,-5,10
mel,13,918.000000,-1,15,0
mel,14,1936.000000,1,-10,-15
mel,15,1990.000000,-1,15,10
mel,16,1470.000000,-1,0,-5
mel,17,3448.000000,1,-5,10
mel,18,5820.000000,1,10,0
mel,19,1838.000000,-1,5,-15
mel,20,1588.000000,-1,0,10
mel,21,5422.000000,-1,-5,-10
mel,22,2706.000000,-1,5,15
mel,23,5426.000000,1,5,-10
mel,24,4420.000000,-1,-5,15
mel,25,2008.000000,1,-15,-5
mel,26,2260.000000,1,-10,10
mel,27,1296.000000,1,-10,5
mel,28,1928.000000,-1,15,-15
mel,29,1864.000000,-1,15,10
mel,30,1106.000000,-1,5,-15
mel,31,3246.000000,1,-10,0
mel,32,1412.000000,1,-5,0
mel,33,3386.000000,-1,-5,-10
mel,34,1824.000000,1,-10,10
mel,35,4778.000000,-1,15,5
mel,36,4088.000000,1,10,5
mel,37,2018.000000,1,-5,-15
mel,38,5164.000000,-1,-5,-15
mel,39,3992.000000,-1,0,5
mel,40,6332.000000,1,10,15
mel,41,1536.000000,1,-15,0
mel,42,1684.000000,-1,0,10
mel,43,3560.000000,1,15,-10
mel,44,5200.000000,1,5,10
mel,45,1304.000000,-1,0,-15
mel,46,2068.000000,1,15,0
mel,47,1314.000000,-1,-5,-15
mel,48,2070.000000,1,5,0
mel,49,4946.000000,1,10,-15
mel,50,4396.000000,1,-15,-5
mel,51,2208.000000,-1,-10,-15
mel,52,2644.000000,1,15,-10
mel,53,5442.000000,-1,15,10
mel,54,1830.000000,1,10,-5
mel,55,4154.000000,-1,0,-15
mel,56,3560.000000,1,0,5
mel,57,2412.000000,1,-10,-5
mel,58,3826.000000,1,-5,0
mel,59,2314.000000,1,-10,5
mel,60,2662.000000,1,10,5
mel,61,3668.000000,1,-15,5
mel,62,1854.000000,-1,15,10
mel,63,1746.000000,1,5,-5
mel,64,1880.000000,1,10,0
mel,65,1436.000000,1,15,-15
mel,66,2176.000000,-1,-15,10
mel,67,2056.000000,-1,-5,5
mel,68,1414.000000,1,5,0
mel,69,4720.000000,1,0,10
mel,70,2104.000000,1,5,-5
mel,71,4048.000000,-1,0,-10
mel,72,2490.000000,1,-15,-10
mel,73,4206.000000,1,-10,15
mel,74,2476.000000,1,10,5
mel,75,2718.000000,-1,5,10
mel,76,1802.000000,1,-10,-5
mel,77,2172.000000,-1,-5,10
mel,78,1526.000000,-1,-5,5
mel,79,2760.000000,-1,-5,15
mel,80,1246.000000,-1,0,15
mel,81,1080.000000,-1,0,10
mel,82,1010.000000,-1,5,15
mel,83,964.000000,-1,5,-10
mel,84,2142.000000,-1,-5,-10
mel,85,2222.000000,-1,-5,0
mel,86,1014.000000,-1,10,-5
mel,87,2264.000000,1,10,-10
mel,88,2010.000000,1,10,0
mel,89,1358.000000,1,-15,5
mel,90,1232.000000,-1,-10,-15
mel,91,1366.000000,-1,0,5
mel,92,3126.000000,1,-15,15
mel,93,2324.000000,1,-15,5
mel,94,1574.000000,1,10,0
mel,95,906.000000,1,15,-10
mel,96,4536.000000,1,10,0
mel,97,2538.000000,1,10,5
mel,98,2062.000000,1,5,15
mel,99,3554.000000,-1,-10,-15
mel,100,3028.000000,-1,15,0
mel,101,1516.000000,1,-15,10
mel,102,2172.000000,-1,10,-10
mel,103,5122.000000,-1,10,-5
mel,104,2858.000000,-1,0,15
mel,105,1460.000000,1,-15,5
mel,106,2170.000000,1,-5,15
mel,107,2228.000000,1,-15,-10
mel,108,5022.000000,-1,0,-15
mel,109,4884.000000,1,5,10
mel,110,2636.000000,-1,5,-15
mel,111,2830.000000,-1,-10,-15
mel,112,1636.000000,1,15,-10
mel,113,1516.000000,1,15,0
mel,114,1736.000000,1,0,-5
mel,115,3450.000000,-1,10,15
mel,116,1702.000000,1,15,-5
mel,117,3440.000000,-1,-10,-5
mel,118,2526.000000,1,5,0
mel,119,1311.000000,1,-15,15
mel,120,2031.000000,-1,5,10
mel,121,1339.000000,-1,5,-5
mel,122,1443.000000,1,-10,15
mel,123,1179.000000,-1,10,-5
mel,124,1599.000000,1,-5,0
mel,125,4325.000000,-1,0,15
mel,126,1127.000000,-1,15,-10
mel,127,4307.000000,1,10,-10
mel,128,1339.000000,-1,5,-10
mel,129,1035.000000,-1,0,15
mel,130,1751.000000,1,15,-15
mel,131,3767.000000,1,15,5
mel,132,1357.000000,1,15,-5
mel,133,1341.000000,-1,-15,15
mel,134,3201.000000,-1,10,15
mel,135,1325.000000,1,10,-5
mel,136,2983.000000,-1,-10,10
mel,137,2925.000000,1,-10,-15
mel,138,1351.000000,1,10,5
mel,139,2243.000000,1,5,10
mel,140,1495.000000,-1,15,-10
mel,141,1329.000000,1,5,15
mel,142,1525.000000,1,-5,15
mel,143,2131.000000,-1,5,-15
mel,144,2027.000000,1,-10,15
mel,145,1015.000000,1,-5,0
mel,146,1239.000000,-1,-5,10
mel,147,3098.000000,-1,0,5
mel,148,1187.000000,1,-10,-5
mel,149,1791.000000,1,15,0
mel,150,1683.000000,1,10,-15
mel,151,4673.000000,-1,0,5
mel,152,2485.000000,-1,0,-10
mel,153,8291.000000,1,-15,0
mel,154,2047.000000,1,15,0
mel,155,4125.000000,-1,10,-10
mel,156,1375.000000,-1,-5,10
mel,157,2535.000000,-1,-15,5
mel,158,2091.000000,-1,-15,15
mel,159,1319.000000,1,-15,-10
mel,160,3441.000000,-1,-5,5
mel,161,1523.000000,-1,15,5
mel,162,1735.000000,1,-15,5
mel,163,1171.000000,-1,0,-5
mel,164,1279.000000,-1,-15,10
mel,165,4219.000000,-1,-15,-10
mel,166,1293.000000,-1,5,10
mel,167,985.000000,-1,5,-15
mel,168,945.000000,1,-10,5
mel,169,1103.000000,-1,0,-15
mel,170,1065.000000,-1,5,-15
mel,171,1011.000000,1,0,5
mel,172,2481.000000,1,-10,10
mel,173,1397.000000,-1,5,-5
mel,174,4833.000000,1,15,-10
mel,175,1317.000000,1,15,5
mel,176,785.000000,1,-10,0
mel,177,1129.000000,-1,5,15
mel,178,3460.000000,-1,-5,-15
mel,179,2547.000000,-1,-5,15
mel,180,1995.000000,-1,-10,-15
mel,181,1083.000000,-1,5,15
mel,182,3283.000000,1,-15,0
mel,183,1591.000000,-1,-15,10
mel,184,2591.000000,-1,10,15
mel,185,1773.000000,1,-10,0
mel,186,10923.000000,-1,0,5
mel,187,1566.000000,-1,-5,10
mel,188,2555.000000,-1,5,15
mel,189,2133.000000,-1,-15,-10
mel,190,2485.000000,1,15,5
mel,191,2430.000000,1,10,5
mel,192,2373.000000,-1,0,5
mel,193,1167.000000,-1,0,10
mel,194,983.000000,1,0,-5
mel,195,1115.000000,1,10,-5
mel,196,1057.000000,-1,-10,-15
mel,197,1160.000000,1,10,0
mel,198,1131.000000,-1,0,15
mel,199,1281.000000,-1,0,5
mel,200,1311.000000,1,-15,-5
mel,201,1301.000000,-1,0,-15
mel,202,2459.000000,-1,10,5
mel,203,3233.000000,1,-10,0
mel,204,1928.000000,1,-15,10
mel,205,1301.000000,1,-15,0
mel,206,947.000000,-1,10,15
mel,207,1169.000000,-1,0,-15
mel,208,1269.000000,1,-5,0
mel,209,3619.000000,-1,15,-15
mel,210,2583.000000,-1,-10,15
mel,211,965.000000,1,-5,5
mel,212,1401.000000,1,15,10
mel,213,1507.000000,1,-15,-5
mel,214,1173.000000,-1,-15,5
mel,215,1473.000000,-1,5,10
mel,216,1287.000000,1,-5,0
mel,217,1894.000000,-1,-5,-10
mel,218,1421.000000,1,-10,-5
mel,219,1147.000000,1,-15,-5
mel,220,2179.000000,-1,0,10
mel,221,1371.000000,-1,-5,-10
mel,222,1139.000000,1,5,-5
mel,223,1397.000000,1,-10,0
mel,224,1238.000000,1,10,-10
mel,225,2855.000000,-1,5,-15
mel,226,775.000000,1,10,-5
mel,227,2455.000000,1,15,5
mel,228,2871.000000,-1,15,10
mel,229,1431.000000,-1,-5,-10
mel,230,2219.000000,-1,5,15
mel,231,1427.000000,1,-15,-10
mel,232,1191.000000,1,-10,-5
mel,233,3042.000000,-1,5,-15
mel,234,1180.000000,-1,15,-10
mel,235,1582.000000,1,-5,15
mel,236,1638.000000,1,-10,15
mel,237,1472.000000,-1,10,-15
mel,238,2356.000000,-1,5,-15
mel,239,4058.000000,1,10,0
mel,240,1876.000000,1,-15,0
mel,241,1568.000000,1,-10,15
mel,242,1234.000000,-1,0,-15
mel,243,7058.000000,-1,-15,15
mel,244,4268.000000,1,15,-15
mel,245,2340.000000,-1,0,-10
mel,246,6152.000000,1,-15,10
mel,247,2042.000000,-1,-15,15
mel,248,3652.000000,-1,5,15
mel,249,1782.000000,1,-10,0
mel,250,6256.000000,-1,0,5
mel,251,886.000000,1,5,0
mel,252,2782.000000,1,-10,-5
mel,253,2170.000000,-1,15,10
mel,254,2242.000000,1,-10,-15
mel,255,1320.000000,1,10,-10
mel,256,5576.000000,-1,0,-15
mel,257,1526.000000,1,5,-5
mel,258,5440.000000,-1,0,10
mel,259,3194.000000,-1,5,-15
mel,260,4186.000000,-1,5,-10
mel,261,1494.000000,-1,-5,15
mel,262,2434.000000,1,-10,-5
mel,263,4012.000000,1,10,-5
mel,264,2264.000000,-1,-15,15
mel,265,1598.000000,-1,-5,-10
mel,266,3454.000000,-1,-15,10
mel,267,4172.000000,-1,0,-10
mel,268,1604.000000,1,-15,-5
mel,269,2348.000000,1,-15,5
mel,270,1670.000000,-1,0,5
mel,271,1880.000000,-1,0,-15
mel,272,1464.000000,-1,0,5
mel,273,1708.000000,1,5,-10
mel,274,1116.000000,-1,5,-15
mel,275,4474.000000,-1,10,-10
mel,276,2498.000000,1,5,0
mel,277,7790.000000,-1,-5,15
mel,278,1440.000000,-1,-5,5
mel,279,2194.000000,-1,-5,0
mel,280,1710.000000,-1,10,5
mel,281,3038.000000,-1,10,-15
mel,282,2232.000000,-1,10,15
mel,283,2472.000000,-1,-5,10
mel,284,2196.000000,1,-5,5
mel,285,1386.000000,1,-5,5
mel,286,1404.000000,-1,-15,-5
mel,287,2290.000000,-1,-5,15
mel,288,9888.000000,1,-15,-10
mel,289,1776.000000,1,15,-15
mel,290,4560.000000,-1,-10,-15
mel,291,1758.000000,1,15,0
mel,292,1524.000000,1,-15,0
mel,293,4226.000000,1,-15,-5
mel,294,1720.000000,-1,-5,10
mel,295,2528.000000,1,10,0
mel,296,1638.000000,1,5,-10
mel,297,2764.000000,1,-10,15
mel,298,2702.000000,1,-10,0
mel,299,5632.000000,1,-15,-5
mel,300,2392.000000,1,15,-10
mel,301,2968.000000,-1,5,10
mel,302,2408.000000,-1,5,15
mel,303,2720.000000,-1,-10,15
mel,304,4666.000000,1,15,10
mel,305,1858.000000,1,-10,0
mel,306,2196.000000,-1,10,15
mel,307,2926.000000,1,10,-5
mel,308,2200.000000,1,15,-10
mel,309,2760.000000,1,15,5
mel,310,1702.000000,1,-5,0
mel,311,3014.000000,1,-10,5
mel,312,4630.000000,1,-10,0
mel,313,1734.000000,1,-5,-15
mel,314,1566.000000,1,15,0
mel,315,5996.000000,1,0,5
mel,316,1130.000000,-1,5,-15
mel,317,1908.000000,-1,0,-15
mel,318,2124.000000,-1,0,10
mel,319,2986.000000,1,-15,0
mel,320,1956.000000,-1,5,0
mel,321,4798.000000,1,-10,10
mel,322,1708.000000,1,10,5
mel,323,4268.000000,1,-10,10
mel,324,2588.000000,1,5,-5
mel,325,5434.000000,-1,0,10
mel,326,4636.000000,1,15,0
mel,327,4368.000000,-1,15,5
mel,328,1556.000000,-1,0,10
mel,329,1266.000000,-1,5,15
mel,330,2154.000000,1,15,5
mel,331,2706.000000,-1,15,-15
mel,332,3876.000000,-1,5,15
mel,333,1818.000000,1,-10,0
mel,334,4026.000000,-1,-5,-15
mel,335,2910.000000,1,10,5
mel,336,3038.000000,1,-10,-15
mel,337,2266.000000,1,-10,10
mel,338,1332.000000,-1,10,-10
mel,339,3068.000000,1,15,-5
mel,340,1600.000000,-1,5,10
mel,341,4744.000000,-1,5,15
mel,342,1712.000000,1,-15,-10
mel,343,1568.000000,-1,-15,5
mel,344,3798.000000,1,-10,-5
mel,345,1306.000000,-1,0,15
mel,346,5726.000000,-1,-5,-15
mel,347,3956.000000,1,10,15
mel,348,5616.000000,1,-15,0
mel,349,2372.000000,-1,-5,-15
mel,350,3954.000000,-1,15,10
mel,351,1618.000000,1,-10,5
mel,352,1596.000000,1,15,5
mel,353,3338.000000,1,-10,5
mel,354,7906.000000,-1,-5,10
mel,355,11850.000000,1,5,0
mel,356,5376.000000,1,5,-5
mel,357,4356.000000,1,-10,15
mel,358,3084.000000,-1,0,5
mel,359,4568.000000,1,10,15
mel,360,1824.000000,1,15,0
mel,361,2688.000000,1,-10,-5
mel,362,3032.000000,1,5,-5
mel,363,7452.000000,1,-15,0
mel,364,1392.000000,-1,-15,10
mel,365,1596.000000,-1,-5,-10
mel,366,2944.000000,-1,0,-5
mel,367,3398.000000,1,15,5
mel,368,3916.000000,1,10,5
mel,369,2900.000000,1,15,-5
mel,370,7320.000000,1,-15,10
mel,371,1224.000000,-1,0,-15
mel,372,6458.000000,-1,15,-15
mel,373,4534.000000,-1,-15,-10
mel,374,1230.000000,-1,0,-10
mel,375,6940.000000,1,10,-10
mel,376,1286.000000,-1,0,-10
mel,377,4816.000000,-1,10,-10
mel,378,5574.000000,-1,5,10
mel,379,4648.000000,1,-5,-10
mel,380,2886.000000,-1,10,5
mel,381,7302.000000,1,-15,10
mel,382,2592.000000,-1,-5,0
mel,383,2242.000000,-1,-10,-15
mel,384,4908.000000,-1,15,-15
mel,385,1898.000000,-1,15,10
mel,386,2304.000000,-1,15,5
mel,387,4020.000000,1,5,10
mel,388,2336.000000,1,-15,-5
mel,389,1334.000000,-1,0,-15
mel,390,2112.000000,-1,10,5
mel,391,1826.000000,1,-15,0
mel,392,1176.000000,-1,-5,-15
mel,393,3454.000000,1,-15,5
mel,394,3688.000000,-1,5,15
mel,395,1660.000000,-1,-5,-15
mel,396,4052.000000,-1,-10,-15
mel,397,7644.000000,1,0,-5
mel,398,1754.000000,1,5,0
mel,399,2008.000000,-1,5,-15
mel,400,1338.000000,1,15,5
mel,401,2184.000000,-1,0,-5
mel,402,4636.000000,1,10,-15
mel,403,2510.000000,1,-5,0
mel,404,21038.000000,-1,0,5
mel,405,2830.000000,1,-15,5
mel,406,13326.000000,-1,5,-10
mel,407,3114.000000,-1,10,15
mel,408,2176.000000,-1,5,-5
mel,409,3264.000000,-1,5,10
mel,410,3966.000000,1,-10,0
mel,411,3052.000000,-1,-10,10
mel,412,3926.000000,1,-15,-5
mel,413,3108.000000,1,5,-15
mel,414,4712.000000,1,-15,-10
mel,415,1290.000000,-1,-5,10
mel,416,1860.000000,-1,0,10
mel,417,1870.000000,1,15,-10
mel,418,2374.000000,1,5,0
mel,419,2752.000000,-1,-15,15
mel,420,3754.000000,-1,5,-15
mel,421,2320.000000,1,10,-5
mel,422,2326.000000,-1,-10,10
mel,423,1576.000000,-1,-10,10
mel,424,14668.000000,1,-10,-5
mel,425,1614.000000,1,-15,0
mel,426,2160.000000,1,15,0
mel,427,2776.000000,1,-10,5
mel,428,1256.000000,-1,5,15
mel,429,4866.000000,1,-5,5
mel,430,3738.000000,-1,-15,-10
mel,431,1508.000000,1,-15,10
mel,432,1338.000000,1,15,0
mel,433,6776.000000,1,-10,-15
mel,434,3932.000000,-1,0,5
mel,435,1790.000000,-1,10,-15
mel,436,2328.000000,1,-5,5
mel,437,2188.000000,-1,0,-15
mel,438,2122.000000,-1,15,-15
mel,439,4600.000000,1,-10,10
mel,440,2202.000000,1,5,0
mel,441,1516.000000,-1,0,-10
mel,442,1764.000000,1,-15,-10
mel,443,6194.000000,1,-15,15
mel,444,2144.000000,-1,5,-15
mel,445,4374.000000,1,10,-10
mel,446,5858.000000,1,15,-15
mel,447,5296.000000,1,15,10
mel,448,1262.000000,-1,0,15
mel,449,2694.000000,1,10,0
mel,450,6954.000000,-1,5,-15
mel,451,2360.000000,-1,5,10
mel,452,1648.000000,-1,-5,15
mel,453,3334.000000,1,-15,0
mel,454,1888.000000,-1,0,-15
mel,455,2212.000000,1,15,-10
mel,456,2192.000000,-1,0,-15
mel,457,3960.000000,1,-10,15
mel,458,3820.000000,1,10,0
mel,459,4630.000000,1,-5,10
mel,460,2084.000000,1,10,5
mel,461,4408.000000,-1,10,-10
mel,462,2810.000000,1,-15,15
mel,463,1476.000000,1,-15,-10
mel,464,2134.000000,-1,0,-10
mel,465,2004.000000,-1,-5,-10
mel,466,2988.000000,-1,15,-5
mel,467,1300.000000,1,-5,15
mel,468,3878.000000,-1,10,-5
dia,0,2787.000000,1,-15,15
dia,1,3683.000000,-1,5,10
dia,2,3327.000000,-1,5,-5
dia,3,15547.000000,1,-10,15
dia,4,4613.000000,-1,10,-5
dia,5,1969.000000,1,-5,0
dia,6,5045.000000,-1,0,15
dia,7,2369.000000,-1,15,-10
dia,8,1593.000000,-1,10,-10
dia,9,1673.000000,-1,5,-10
dia,10,17359.000000,1,0,15
dia,11,1233.000000,-1,15,-15
dia,12,3255.000000,1,15,5
dia,13,1377.000000,1,15,-5
dia,14,2611.000000,1,-15,15
dia,15,6625.000000,1,-15,5
dia,16,1335.000000,1,10,15
dia,17,1469.000000,1,10,-5
dia,18,3873.000000,1,-10,10
dia,19,4161.000000,1,5,-5
dia,20,1071.000000,1,-10,-15
dia,21,3107.000000,1,10,5
dia,22,2779.000000,-1,5,10
dia,23,2549.000000,1,15,-10
dia,24,2097.000000,-1,5,15
dia,25,3369.000000,-1,-5,15
dia,26,5068.000000,1,5,-15
dia,27,2912.000000,-1,-10,15
dia,28,3789.000000,1,-5,0
dia,29,4056.000000,-1,-5,10
dia,30,5013.000000,1,0,5
dia,31,1061.000000,1,-10,-5
dia,32,1571.000000,1,15,0
dia,33,1596.000000,1,10,-15
dia,34,1153.000000,-1,0,5
dia,35,5431.000000,-1,0,-10
dia,36,1935.000000,1,-15,0
dia,37,1124.000000,1,15,0
dia,38,1303.000000,1,10,-10
dia,39,1215.000000,-1,-5,10
dia,40,8365.000000,-1,-15,5
dia,41,1401.000000,1,-15,15
dia,42,1139.000000,-1,5,15
dia,43,1043.000000,1,-15,-10
dia,44,1868.000000,-1,5,10
dia,45,1057.000000,1,15,-10
dia,46,13069.000000,1,5,0
dia,47,2103.000000,-1,-5,5
dia,48,1377.000000,1,15,5
dia,49,1383.000000,1,-15,5
dia,50,11936.000000,-1,0,-5
dia,51,2149.000000,1,-15,10
dia,52,1458.000000,1,-15,-10
dia,53,3993.000000,-1,5,10
dia,54,2439.000000,-1,5,-15
dia,55,3935.000000,1,-10,5
dia,56,1193.000000,-1,0,-15
dia,57,1500.000000,-1,5,-15
dia,58,3787.000000,-1,0,5
dia,59,4819.000000,-1,-10,10
dia,60,1997.000000,1,5,-5
dia,61,14479.000000,-1,15,-10
dia,62,989.000000,1,15,5
dia,63,1005.000000,1,-10,0
dia,64,2939.000000,-1,5,15
dia,65,1271.000000,-1,-5,-15
dia,66,1205.000000,-1,-5,15
dia,67,2583.000000,-1,-10,-15
dia,68,987.000000,-1,5,15
dia,69,1955.000000,1,-15,0
dia,70,2833.000000,1,-15,10
dia,71,2885.000000,-1,10,15
dia,72,2485.000000,1,-10,0
dia,73,4491.000000,-1,-5,10
dia,74,1237.000000,-1,5,15
dia,75,3385.000000,1,-15,-10
dia,76,1038.000000,1,15,5
dia,77,2151.000000,1,10,5
dia,78,2841.000000,-1,0,5
dia,79,1258.000000,-1,0,10
dia,80,2714.000000,-1,0,-5
dia,81,13190.000000,1,10,-5
dia,82,9033.000000,-1,-10,-15
dia,83,2617.000000,1,10,0
dia,84,3629.000000,-1,0,-15
dia,85,3271.000000,1,10,5
dia,86,3501.000000,1,-10,0
dia,87,1665.000000,1,-15,10
dia,88,969.000000,1,-15,0
dia,89,1535.000000,-1,10,15
dia,90,1327.000000,1,-5,0
dia,91,2023.000000,1,15,-15
dia,92,1792.000000,-1,-10,15
dia,93,839.000000,-1,-5,5
dia,94,784.000000,1,15,10
dia,95,2223.000000,-1,-15,-5
dia,96,999.000000,1,5,10
dia,97,2000.000000,-1,-5,0
dia,98,991.000000,1,-15,-5
dia,99,1777.000000,1,-5,-10
dia,100,3408.000000,-1,5,-5
dia,101,4832.000000,1,-10,0
dia,102,2897.000000,1,10,-10
dia,103,3765.000000,-1,5,-15
dia,104,2800.000000,1,10,-5
dia,105,1683.000000,1,15,10
dia,106,3182.000000,-1,-5,-10
dia,107,1987.000000,-1,5,15
dia,108,994.000000,1,-15,-10
dia,109,1207.000000,1,-10,-5
dia,110,1777.000000,1,-15,-10
dia,111,2039.000000,1,0,-10
dia,112,5007.000000,-1,10,-10
dia,113,2329.000000,-1,0,-15
dia,114,1572.000000,-1,5,-15
dia,115,1800.000000,1,0,5
dia,116,1960.000000,1,-10,15
dia,117,2023.000000,1,-10,10
dia,118,2067.000000,-1,15,-10
dia,119,2339.000000,-1,5,-10
dia,120,1231.000000,1,-15,-5
dia,121,2871.000000,1,-15,15
dia,122,2620.000000,1,-10,15
dia,123,4661.000000,1,-10,15
dia,124,1443.000000,1,-10,0
dia,125,8342.000000,-1,0,-5
dia,126,1112.000000,-1,5,-15
dia,127,3270.000000,1,-5,5
dia,128,1246.000000,1,15,10
dia,129,1989.000000,1,15,0
dia,130,751.000000,1,-10,5
dia,131,1251.000000,-1,10,-15
dia,132,989.000000,-1,-10,-15
dia,133,617.000000,1,-15,5
dia,134,1057.000000,1,-15,-10
dia,135,796.000000,-1,5,-10
dia,136,914.000000,-1,0,5
dia,137,809.000000,-1,-15,15
dia,138,5682.000000,1,-10,10
dia,139,1257.000000,1,-15,-5
dia,140,15906.000000,-1,-5,10
dia,141,1288.000000,-1,10,15
dia,142,963.000000,-1,5,15
dia,143,2258.000000,1,-15,10
dia,144,821.000000,-1,0,15
dia,145,4546.000000,1,-5,0
dia,146,1390.000000,1,10,0
dia,147,1401.000000,1,15,-5
dia,148,954.000000,-1,5,10
dia,149,1453.000000,-1,-5,-15
dia,150,4433.000000,-1,-10,15
dia,151,1331.000000,1,5,-5
dia,152,1142.000000,-1,-10,15
dia,153,1820.000000,-1,-5,10
dia,154,828.000000,1,15,5
dia,155,672.000000,-1,-5,5
dia,156,3658.000000,1,5,-10
dia,157,1176.000000,1,-15,-10
dia,158,2250.000000,1,15,0
dia,159,1572.000000,-1,0,-10
dia,160,1403.000000,-1,-5,-15
dia,161,803.000000,1,15,-5
dia,162,1142.000000,1,-15,10
dia,163,1126.000000,1,5,0
dia,164,950.000000,1,-5,-10
dia,165,1134.000000,1,-10,5
dia,166,3280.000000,-1,0,5
dia,167,3865.000000,1,-15,15
dia,168,1423.000000,1,5,-5
dia,169,1873.000000,1,-10,0
dia,170,2937.000000,-1,15,-10
dia,171,1973.000000,1,0,15
dia,172,4122.000000,1,-10,5
dia,173,1363.000000,-1,15,10
dia,174,864.000000,1,5,0
dia,175,3366.000000,1,-5,0
dia,176,2091.000000,-1,10,-10
dia,177,1468.000000,1,-15,-5
dia,178,997.000000,-1,0,-10
dia,179,736.000000,-1,10,-15
dia,180,4932.000000,-1,10,-10
dia,181,665.000000,1,-15,5
dia,182,5262.000000,1,10,0
dia,183,1595.000000,-1,0,5
dia,184,4818.000000,1,-15,10
dia,185,1253.000000,1,10,5
dia,186,942.000000,-1,-5,15
dia,187,1224.000000,1,-15,10
dia,188,1415.000000,-1,5,0
dia,189,1434.000000,-1,-5,-10
dia,190,1092.000000,1,15,5
dia,191,3224.000000,1,-5,10
dia,192,2192.000000,1,15,10
dia,193,9958.000000,-1,-5,15
dia,194,1466.000000,1,-15,10
dia,195,2388.000000,1,5,-5
dia,196,1232.000000,-1,0,15
dia,197,665.000000,-1,0,-15
dia,198,1396.000000,1,10,0
dia,199,900.000000,-1,-5,15
dia,200,628.000000,1,-15,-5
dia,201,872.000000,1,-10,0
dia,202,858.000000,-1,10,-15
dia,203,814.000000,-1,-5,-15
dia,204,2175.000000,1,10,-15
dia,205,993.000000,-1,5,15
dia,206,2296.000000,-1,0,-5
dia,207,2496.000000,1,15,-5
dia,208,4070.000000,-1,-10,15
dia,209,1228.000000,-1,5,-10
dia,210,3992.000000,1,-10,5
dia,211,1078.000000,-1,10,15
dia,212,2196.000000,-1,-5,15
dia,213,806.000000,1,15,0
dia,214,1018.000000,-1,0,15
dia,215,1232.000000,-1,5,-15
dia,216,2528.000000,1,15,-15
dia,217,856.000000,1,-5,0
dia,218,1364.000000,1,5,-15
dia,219,3802.000000,1,-15,0
dia,220,2292.000000,1,-10,0
dia,221,1020.000000,1,-5,-10
dia,222,16004.000000,1,5,-5
dia,223,966.000000,-1,5,15
dia,224,788.000000,-1,0,10
dia,225,16644.000000,1,-15,5
dia,226,1620.000000,1,15,-5
dia,227,1040.000000,-1,0,-15
dia,228,1395.000000,1,15,-10
dia,229,2441.000000,-1,5,10
dia,230,4985.000000,-1,-5,5
dia,231,1661.000000,1,-15,0
dia,232,1017.000000,-1,0,-15
dia,233,2107.000000,-1,-5,10
dia,234,1235.000000,1,-10,0
dia,235,933.000000,-1,10,15
dia,236,1797.000000,1,-15,10
dia,237,1289.000000,1,15,10
dia,238,1603.000000,-1,-5,-15
dia,239,777.000000,-1,-10,0
dia,240,1221.000000,-1,-15,-10
dia,241,815.000000,-1,-15,15
dia,242,1071.000000,1,0,-5
dia,243,1277.000000,-1,5,-10
dia,244,1187.000000,1,-10,-5
dia,245,4699.000000,1,10,-5
dia,246,2231.000000,1,-5,-10
dia,247,933.000000,-1,-5,-15
dia,248,1071.000000,-1,-5,-15
dia,249,1161.000000,1,-15,-10
dia,250,1379.000000,-1,0,-15
dia,251,935.000000,1,-10,5
dia,252,3263.000000,1,5,0
dia,253,4553.000000,-1,-10,15
dia,254,2149.000000,-1,10,15
dia,255,881.000000,-1,0,5
dia,256,1005.000000,-1,0,-15
dia,257,5357.000000,-1,0,10
dia,258,855.000000,1,15,5
dia,259,897.000000,1,-15,5
dia,260,1777.000000,1,-15,10
dia,261,2767.000000,-1,-5,15
dia,262,1339.000000,1,10,5
dia,263,2979.000000,-1,0,10
dia,264,1247.000000,-1,0,15
dia,265,1169.000000,-1,5,15
dia,266,1909.000000,1,-10,15
dia,267,4029.000000,1,5,0
dia,268,1773.000000,1,-5,15
dia,269,1895.000000,1,-15,0
dia,270,1031.000000,-1,-5,-15
dia,271,1069.000000,1,-15,-10
dia,272,2191.000000,-1,0,5
dia,273,1445.000000,1,-5,15
dia,274,1113.000000,-1,10,-10
dia,275,2127.000000,-1,-10,15
dia,276,601.000000,1,10,-10
dia,277,2107.000000,1,5,-5
dia,278,2383.000000,1,-10,-5
dia,279,1337.000000,1,10,15
dia,280,1931.000000,1,-15,-10
dia,281,1789.000000,1,15,-5
dia,282,487.000000,1,10,-5
dia,283,743.000000,1,5,10
dia,284,765.000000,1,-15,5
dia,285,713.000000,1,15,10
dia,286,561.000000,1,10,0
dia,287,603.000000,-1,-5,15
